"Time (s)";"Acceleration x (m/s^2)";"Acceleration y (m/s^2)";"Acceleration z (m/s^2)"
2,815968300E-2;-4,248456478E0;5,913262844E0;7,634898663E0
9,395186900E-2;-3,725624800E0;4,013959885E0;7,512865067E0
1,939518690E-1;-1,785643935E0;1,302293777E0;1,036690426E1
2,939518690E-1;-4,809573591E-1;1,625324726E0;8,145168304E0
3,939518690E-1;1,948355794E0;1,895713687E0;1,033639526E1
4,939518690E-1;1,998006850E-1;1,713261008E0;8,252845764E0
5,939518690E-1;2,248655081E0;1,625923038E0;8,507082939E0
6,939518690E-1;4,793421745E0;-6,299105883E-1;4,179663181E0
7,939518690E-1;4,858027935E0;-1,652842283E0;8,877372146E-1
8,939518690E-1;1,083350468E1;-6,937989235E0;9,142376900E0
9,939518690E-1;1,744547081E1;-7,554739475E0;9,675976753E0
1,093951869E0;1,451486206E1;-6,760322094E0;1,041476011E0
1,193951869E0;5,830112457E0;-9,960124016E0;1,923829436E0
1,293951869E0;6,765107632E0;7,387840152E-1;2,592025042E0
1,393951869E0;4,040879250E0;-3,077169895E0;-3,511467278E-1
1,493951869E0;2,782254457E0;-9,460622787E0;2,985046148E0
1,593951869E0;6,277570248E0;-7,377072334E0;1,001396298E0
1,693951869E0;1,093519974E1;-8,005785942E0;2,030309916E0
1,793951869E0;9,979267120E0;-7,068397999E0;2,312663078E0
1,893951869E0;2,754138947E0;-4,594219685E0;-1,433898926E0
1,993951869E0;3,505485058E0;-6,745367050E0;-6,909275651E-1
2,093951869E0;-1,937588096E0;-1,061157036E1;2,605185747E0
2,193951869E0;-4,171288013E0;-1,271306705E1;2,214557409E0
2,293951869E0;-1,533799291E0;-1,074975586E1;2,657827854E0
2,393951869E0;-3,332603693E0;-1,124925709E1;3,749552965E0
2,493951869E0;-7,034898400E-1;-1,110509014E1;-2,159522474E-1
2,593951869E0;5,982056609E-4;-1,170389366E1;-4,046263218E0
2,693951869E0;-4,713262558E0;-1,166501045E1;-4,101297855E0
2,793951869E0;-4,217350006E0;-3,872783422E0;-5,042873859E0
2,893951869E0;-5,356931686E0;-2,670390129E0;-4,850849628E0
2,993951869E0;-6,507879257E0;-7,447660565E-1;-4,009772778E0
3,093951869E0;-6,276373863E0;-3,182454109E-1;-5,319244862E0
3,193951869E0;-6,556334019E0;-1,524227977E0;-6,489335060E0
3,293951869E0;-6,191428661E0;-2,548954248E0;-5,662614822E0
3,393951869E0;-6,203990936E0;-4,068994999E0;-6,508477688E0
3,493951869E0;-6,963113785E0;-3,580260992E0;-6,894320011E0
3,593951869E0;-4,737788677E0;-4,557130814E0;-8,350353241E0
3,693951869E0;-2,852842808E0;-3,825525284E0;-4,989035130E0
3,793951869E0;-9,421738982E-1;-6,681358814E0;-8,372486115E0
3,893951869E0;-2,033899277E-1;-7,520641804E0;-7,190432072E0
3,993951869E0;8,560323119E-1;-6,659225464E0;-6,082555294E0
4,093951869E0;1,495514158E-2;-6,957729816E0;-5,018347263E0
4,193951869E0;3,609572887E0;-1,066241741E1;-8,223533630E0
4,293951869E0;2,026720762E0;-7,086344242E0;-5,515456200E0
4,393951869E0;2,087737799E0;-8,145766258E0;-7,350152969E0
4,493951869E0;1,857428551E0;-8,437690735E0;-6,151947021E0
4,593951869E0;2,965903759E0;-6,723831654E0;-6,125626087E0
4,693951869E0;3,173480988E0;-6,213562012E0;-6,880561352E0
4,793951869E0;3,607180119E0;-5,014159679E0;-9,659825325E0
4,893951869E0;4,192225456E0;-5,493322372E0;-9,897313118E0
4,993951869E0;1,336391449E0;-5,006981373E0;-8,910273552E0
5,093951869E0;-1,322034448E-1;-3,078964472E0;-6,967301369E0
5,193951869E0;9,122636318E-1;-6,532405615E-1;-8,559126854E0
5,293951869E0;3,734597921E0;-5,506483078E0;-9,565308571E0
5,393951869E0;1,205384374E0;-2,840280533E0;-6,753741741E0
5,493951869E0;2,187638044E0;-7,060621262E0;-5,667998791E0
5,593951869E0;1,808375716E0;-1,065822983E1;-6,735197544E0
5,693951869E0;2,268395901E0;-8,795417786E0;-9,098708153E0
5,793951869E0;3,595814228E0;-7,971090317E0;-3,987040758E0
5,893951869E0;3,735196114E0;-7,013363361E0;-8,392825127E0
5,993951869E0;4,322634220E0;-7,629515171E0;-7,417151928E0
6,093951869E0;6,167500615E-1;-4,353740692E0;-6,796214581E0
6,193951869E0;3,852444589E-1;-1,517647743E0;-4,275974274E0
6,293951869E0;1,900499344E0;-2,497508526E0;-6,947560310E0
6,393951869E0;3,596412420E0;-4,909473896E0;-6,430710793E0
6,493951869E0;2,829512835E0;-1,011625576E1;-7,907082558E0
6,593951869E0;2,372483730E0;-8,045268059E0;-5,158925533E0
6,693951869E0;2,251047850E0;-8,313263893E0;-5,428118229E0
6,793951869E0;3,561716557E0;-7,949554920E0;-4,804787636E0
6,893951869E0;4,232305050E0;-6,130411625E0;-6,724429607E0
6,993951869E0;4,869394302E0;-8,863015175E0;-1,003011417E1
7,093951869E0;-1,088136077E0;-1,697109461E0;-4,454837322E0
7,193951869E0;-5,264209956E-2;-1,374078393E0;-4,354339123E0
7,293951869E0;2,525026083E0;-4,727619171E0;-7,518248558E0
7,393951869E0;3,740580082E0;-5,719444275E0;-6,694519520E0
7,493951869E0;1,794018745E0;-1,013180923E1;-6,736393929E0
7,593951869E0;2,130210400E0;-9,066405296E0;-6,625127792E0
7,693951869E0;3,574278831E0;-9,439086914E0;-5,434100151E0
7,793951869E0;4,073182583E0;-5,057828903E0;-5,839085579E0
7,893951869E0;2,970689297E0;-5,658427238E0;-7,050451756E0
7,993951869E0;7,369893789E-1;-1,628315806E0;-5,912066460E0
8,093951869E0;1,110269666E0;-2,602194548E0;-6,607181549E0
8,193951869E0;2,187638044E0;-2,316850424E0;-5,429912567E0
8,293951869E0;2,801397085E0;-6,297310829E0;-6,310471535E0
8,393951869E0;3,116651535E0;-1,117268753E1;-7,091129780E0
8,493951869E0;2,428116798E0;-9,416355133E0;-6,285346985E0
8,593951869E0;2,488535643E0;-1,003789139E1;-6,153741837E0
8,693951869E0;2,876770973E0;-8,618947029E0;-4,804189682E0
8,793951869E0;4,588835716E0;-6,569494724E0;-6,773482800E0
8,893951869E0;5,805585861E0;-7,523034573E0;-1,010788059E1
8,993951869E0;-1,045065284E0;-1,862214208E0;-3,313461065E0
9,093951869E0;5,551348329E-1;-2,210369825E0;-6,578467846E0
9,193951869E0;2,539981127E0;-1,837687731E0;-6,633502483E0
9,293951869E0;1,948355794E0;-4,673780918E0;-4,780261517E0
9,393951869E0;2,353341103E0;-1,210170078E1;-7,548159122E0
9,493951869E0;2,794816732E0;-1,035194874E1;-6,556932449E0
9,593951869E0;1,614557028E0;-8,632107735E0;-4,913063049E0
9,693951869E0;2,806182861E0;-9,671789169E0;-6,342176437E0
9,793951869E0;3,328416348E0;-7,392625332E0;-6,507281303E0
9,893951869E0;3,839882135E0;-6,184250355E0;-6,957729816E0
9,993951869E0;3,125624657E0;-5,513661385E0;-7,049255371E0
1,009395187E1;1,289133191E0;-5,932405472E0;-5,231308460E0
1,019395187E1;5,419743061E-1;1,136590727E-2;-5,422734261E0
1,029395187E1;4,526622295E0;-9,165108681E0;-1,148016453E1
1,039395187E1;5,898307562E-1;-4,808377266E0;-3,725624800E0
1,049395187E1;2,344966173E0;-8,602795601E0;-6,177670002E0
1,059395187E1;3,674777269E0;-1,329033470E1;-7,801798344E0
1,069395187E1;2,668595552E0;-9,014361382E0;-7,011568546E0
1,079395187E1;5,165505886E0;-9,620343208E0;-6,666403770E0
1,089395187E1;3,140579700E0;-7,526623726E0;-5,411966801E0
1,099395187E1;4,498506546E0;-6,587440968E0;-8,484351158E0
1,109395187E1;1,188634634E0;-3,047259569E0;-5,639284611E0
1,119395187E1;9,511470199E-1;-1,922034740E0;-6,205785751E0
1,129395187E1;2,435893536E0;-2,621337175E0;-6,557530403E0
1,139395187E1;2,504088879E0;-3,399004459E0;-6,559923172E0
1,149395187E1;2,111067772E0;-6,014359951E0;-7,153343201E0
1,159395187E1;3,118446112E0;-9,091529846E0;-7,063612461E0
1,169395187E1;3,122035265E0;-9,958329201E0;-6,751947403E0
1,179395187E1;2,564507723E0;-7,826922894E0;-5,715256691E0
1,189395187E1;3,932604074E0;-8,487341881E0;-7,016354084E0
1,199395187E1;4,196412563E0;-7,690532207E0;-6,952944279E0
1,209395187E1;2,750549555E0;-5,081159115E0;-5,976672649E0
1,219395187E1;1,771885157E0;-3,117249727E0;-7,616354465E0
1,229395187E1;1,191027522E0;-2,269592285E0;-7,242475986E0
1,239395187E1;3,085544825E0;-3,595216036E0;-6,806384087E0
1,249395187E1;5,320441246E0;-4,797609329E0;-6,462415695E0
1,259395187E1;3,731606960E0;-1,038903809E1;-7,478767395E0
1,269395187E1;2,400599241E0;-8,710473061E0;-5,582455158E0
1,279395187E1;2,410768747E0;-8,776275635E0;-5,337191105E0
1,289395187E1;4,109074593E0;-9,865009308E0;-5,008177757E0
1,299395187E1;4,381856441E0;-8,432307243E0;-5,620740414E0
1,309395187E1;4,487739086E0;-5,423930645E0;-8,099106789E0
1,319395187E1;5,270192027E-1;-1,263410330E0;-3,333201885E0
1,329395187E1;1,506281853E0;-1,501496196E0;-5,011766911E0
1,339395187E1;2,015354872E0;-2,440080881E0;-5,431707382E0
1,349395187E1;2,834298372E0;-5,980261803E0;-6,061617851E0
1,359395187E1;5,100899696E0;-1,020718288E1;-8,401798248E0
1,369395187E1;1,272383451E0;-9,569496155E0;-5,754738331E0
1,379395187E1;2,018345833E0;-1,325384426E1;-6,086742401E0
1,389395187E1;2,298904419E0;-4,771288395E0;-1,363310695E0
1,399395187E1;6,342176437E0;-1,016411209E1;-8,527421951E0
1,409395187E1;6,043073654E0;-1,199163055E1;-7,233502865E0
1,419395187E1;2,570489645E0;-2,772084951E0;-5,783452511E0
1,429395187E1;3,169293642E0;-4,433900356E0;-7,012764931E0
1,439395187E1;2,879163742E0;3,565305769E-1;-5,869594097E0
1,449395187E1;1,851446509E0;-4,594817638E0;-7,163512707E0
1,459395187E1;2,526820660E0;-7,900502205E0;-5,179862976E0
1,469395187E1;3,184248686E0;-6,543771744E0;-5,873781204E0
1,479395187E1;3,492324591E0;-1,048475075E1;-7,395018578E0
1,489395187E1;2,830111027E0;-6,775277138E0;-5,055436134E0
1,499395187E1;4,555934429E0;-8,806783676E0;-7,532007694E0
1,509395187E1;3,727419376E0;-8,525627136E0;-6,613163471E0
1,519395187E1;3,637688637E0;-5,702694416E0;-6,488138676E0
1,529395187E1;2,206780672E0;-3,602394581E0;-5,554937840E0
1,539395187E1;2,247458696E0;-1,902892232E0;-5,845067501E0
1,549395187E1;3,390629768E0;-4,804189682E0;-7,067201614E0
1,559395187E1;3,611965895E0;-6,958926678E0;-6,196812630E0
1,569395187E1;3,183052301E0;-8,969495773E0;-6,533003807E0
1,579395187E1;2,078764677E0;-1,153938675E1;-4,027120590E0
1,589395187E1;2,449652195E0;-9,261420250E0;-7,243672371E0
1,599395187E1;1,717448473E0;-7,611568928E0;-2,358126640E0
1,609395187E1;1,287338614E0;-5,749952793E0;-5,746363640E0
1,619395187E1;5,257629395E0;-8,140382767E0;-8,207381248E0
1,629395187E1;1,990828395E0;-5,251647472E0;-4,792225361E0
1,639395187E1;1,782054663E0;6,753742099E-1;-6,483353138E0
1,649395187E1;4,921437740E0;-1,042074203E0;-5,598606586E0
1,659395187E1;2,500499725E0;-7,305287361E0;-7,303493023E0
1,669395187E1;5,372485161E0;-8,241478920E0;-4,813162804E0
1,679395187E1;2,816950560E0;-1,099741268E1;-8,590831757E0
1,689395187E1;1,759921074E0;-4,521238327E0;1,951346874E0
1,699395187E1;4,330410957E0;-8,596813202E0;-7,564310551E0
1,709395187E1;4,941178799E0;-7,554141045E0;-5,763711452E0
1,719395187E1;4,051048756E0;-5,120640278E0;-4,643272400E0
1,729395187E1;1,657627940E0;-1,843669891E0;-3,740580082E0
1,739395187E1;2,882753134E0;-2,447259426E0;-4,749752998E0
1,749395187E1;1,540977836E0;-4,336990833E0;-4,748556614E0
1,759395187E1;4,453042984E0;-5,043471813E0;-5,514259815E0
1,769395187E1;1,936989903E0;-1,118764210E1;-7,126423836E0
1,779395187E1;3,452843189E0;-7,995616913E0;-5,848058701E0
1,789395187E1;3,382254839E0;-1,041356373E1;-6,053243160E0
1,799395187E1;4,253840446E0;-6,684948444E0;-6,168696880E0
1,809395187E1;4,259822369E0;-6,588038921E0;-5,556134224E0
1,819395187E1;2,102692842E0;-3,396013498E0;-5,355136871E0
1,829395187E1;1,044467092E0;-6,017948985E-1;-4,604389191E0
1,839395187E1;4,075575352E0;-5,417350292E0;-5,130211830E0
1,849395187E1;3,992424488E0;-7,482356548E0;-5,206781864E0
1,859395187E1;4,048057556E0;-9,967901230E0;-5,687739372E0
1,869395187E1;3,391227961E0;-9,723235130E0;-6,494719028E0
1,879395187E1;3,173480988E0;-8,666803360E0;-5,443671703E0
1,889395187E1;4,511068821E0;-8,658429146E0;-4,969892502E0
1,899395187E1;3,894318819E0;-6,067001820E0;-5,238486767E0
1,909395187E1;3,272783279E0;-4,709074974E0;-6,422336102E0
1,919395187E1;1,311266780E0;-1,283151150E0;-4,385445595E0
1,929395187E1;2,205584288E0;-1,869392633E0;-5,475974560E0
1,939395187E1;3,108276606E0;-7,170093060E0;-5,057230473E0
1,949395187E1;3,841676712E0;-9,868598938E0;-5,494519234E0
1,959395187E1;2,452044964E0;-9,432506561E0;-6,201598167E0
1,969395187E1;3,672982693E0;-8,132007599E0;-5,831906796E0
1,979395187E1;3,236890793E0;-9,901499748E0;-5,145166874E0
1,989395187E1;1,805982947E0;-7,292127132E0;-3,960719585E0
1,999395187E1;3,579662561E0;-7,564908981E0;-5,711667538E0
2,009395187E1;4,566103935E0;-6,971488953E0;-5,689534187E0
2,019395187E1;3,907479286E0;-7,889734268E0;-5,782854080E0
2,029395187E1;4,022335052E0;-3,445664644E0;-5,947958946E0
2,039395187E1;3,829712629E0;-3,999603033E0;-5,710471153E0
2,049395187E1;7,001399040E0;-9,403194427E0;-9,056235313E0
2,059395187E1;1,637288928E0;-3,710669756E0;-4,494917393E0
2,069395187E1;2,308475733E0;-1,092921734E0;-5,668596745E0
2,079395187E1;3,424129248E0;-1,506281853E0;-5,760122299E0
2,089395187E1;4,836492538E0;-5,318048477E0;-8,118846893E0
2,099395187E1;3,931407690E0;-1,177268696E1;-6,861418724E0
2,109395187E1;3,254238844E0;-9,344570160E0;-5,632704735E0
2,119395187E1;3,730410576E0;-8,534002304E0;-2,906681299E0
2,129395187E1;4,385445595E0;-8,927620888E0;-3,851846218E0
2,139395187E1;5,609972477E0;-7,612166882E0;-5,667400360E0
2,149395187E1;4,098905087E0;-6,138188362E0;-5,549553871E0
2,159395187E1;3,404986620E0;-5,496313572E0;-5,905486107E0
2,169395187E1;2,642872572E0;-2,464009047E0;-5,934798241E0
2,179395187E1;2,485544443E0;-3,019742250E0;-6,027520180E0
2,189395187E1;3,234498024E0;-2,892922640E0;-5,441278458E0
2,199395187E1;4,738387108E0;-5,245067120E0;-6,967301369E0
2,209395187E1;3,334398270E0;-9,099904060E0;-4,998008251E0
2,219395187E1;3,189034462E0;-1,104885864E1;-6,142375946E0
2,229395187E1;3,034099102E0;-8,386244774E0;-4,439882278E0
2,239395187E1;3,228515863E0;-1,069711399E1;-6,226722717E0
2,249395187E1;5,837290764E0;-9,175876617E0;-7,130611420E0
2,259395187E1;2,738585472E0;-7,473383427E0;-4,970490932E0
2,269395187E1;6,395416737E0;-6,841678143E0;-8,385646820E0
2,279395187E1;2,033899166E-2;-1,859223247E0;-2,460419893E0
2,289395187E1;3,548556089E0;-1,767697692E0;-5,906682491E0
2,299395187E1;5,654240131E0;-5,980860233E0;-7,176074982E0
2,309395187E1;2,611167669E0;-5,203192711E0;-5,280361176E0
2,319395187E1;3,829712629E0;-8,059624672E0;-2,636292458E0
2,329395187E1;2,700300455E0;-1,111226845E1;-5,181657314E0
2,339395187E1;3,150151014E0;-7,834699631E0;-3,602992773E0
2,349395187E1;1,431506157E0;-6,312864304E0;-2,372483730E0
2,359395187E1;5,260022163E0;-1,036331463E1;-8,754141808E0
2,369395187E1;4,659423828E0;-7,192226887E0;-5,620740414E0
2,379395187E1;3,357728481E0;-6,673582554E0;-6,086144447E0
2,389395187E1;3,270988464E0;-5,524429321E0;-7,097710133E0
2,399395187E1;1,985444546E0;1,333998591E-1;-6,037091732E0
2,409395187E1;5,901299000E0;-4,348955154E0;-6,761518478E0
2,419395187E1;4,978865623E0;-5,922235966E0;-5,120042324E0
2,429395187E1;2,849851847E0;-8,910273552E0;-6,398407936E0
2,439395187E1;3,823132277E0;-1,159920788E1;-7,646862984E0
2,449395187E1;4,783850670E0;-6,548557281E0;-5,495117188E0
2,459395187E1;6,216553211E0;-9,332606316E0;-5,840879917E0
2,469395187E1;4,455435753E0;-8,503493309E0;-4,406383038E0
2,479395187E1;3,568296671E0;-4,196412563E0;-5,946762562E0
2,489395187E1;4,820939541E0;-4,340580463E0;-7,734799385E0
2,499395187E1;2,293520451E0;-2,629712105E0;-5,002793789E0
2,509395187E1;4,768297195E0;-4,880161762E0;-7,250850677E0
2,519395187E1;3,884149313E0;-7,748558044E0;-6,199205399E0
2,529395187E1;6,029314995E0;-1,166620636E1;-4,697709084E0
2,539395187E1;4,945964336E0;-1,052662468E1;-8,636893272E0
2,549395187E1;6,394818306E0;-7,629515171E0;-1,080120182E1
2,559395187E1;3,544966698E0;-9,768698692E0;-3,576671600E0
2,569395187E1;3,610171080E0;-8,958129883E0;-5,834897995E0
2,579395187E1;4,996811867E0;-2,226521492E0;-2,585444927E0
2,589395187E1;1,771885157E0;-2,002792597E0;-4,156332970E0
2,599395187E1;6,937391281E0;-9,306883812E0;-7,895716667E0
2,609395187E1;9,517452121E-1;-6,879365444E-2;-4,640281200E0
2,619395187E1;3,326023579E0;-6,951149940E0;-3,778266907E0
2,629395187E1;2,995215654E0;-1,391605854E1;-1,009172916E1
2,639395187E1;2,298306227E0;-1,601875114E1;-5,533402443E0
2,649395187E1;1,674377680E0;-1,021017456E1;-3,212962627E0
2,659395187E1;4,340580463E0;-5,900700569E0;-4,448257446E0
2,669395187E1;3,923630953E0;-4,776672363E0;-7,992625713E0
2,679395187E1;4,125824451E0;-3,738785267E0;-4,312464714E0
2,689395187E1;2,009970903E0;-7,902296543E0;-1,817348838E0
2,699395187E1;4,255036831E0;-4,888536453E0;-2,187039852E0
2,709395187E1;6,964908600E0;-6,491129398E0;2,041675806E0
2,719395187E1;5,572285652E0;-6,656832695E0;-6,058627129E0
2,729395187E1;3,744767427E0;-8,639883995E0;7,477570772E-1
2,739395187E1;3,018545866E0;-1,170389366E1;-3,664009571E0
2,749395187E1;1,554138303E0;-9,481559753E0;-3,898506403E0
2,759395187E1;1,006181908E1;-1,553958893E1;-7,845467091E0
2,769395187E1;2,240878344E0;-4,107280254E0;-4,067798331E-2
2,779395187E1;4,482953072E0;-5,215754986E0;-5,258825779E0
2,789395187E1;2,810370207E0;-9,314061999E-1;-6,083751678E0
2,799395187E1;-1,046859920E-1;-3,072384357E0;-6,380461693E0
2,809395187E1;3,620340586E0;-9,088538170E0;-8,544769287E0
2,819395187E1;2,954537868E0;-6,823731899E0;3,322434187E0
2,829395187E1;2,863610506E0;-6,677769661E0;-7,524828911E0
2,839395187E1;1,741376638E0;-6,538387775E0;-1,626521230E0
2,849395187E1;1,933400750E0;-7,746763229E0;-3,385245800E0
2,859395187E1;1,933400750E0;-7,746763229E0;-3,385245800E0
2,869395187E1;6,069993019E0;-6,946363926E0;-4,524827480E0
2,879395187E1;2,413161755E0;-5,197809219E0;-4,738985062E0
2,889395187E1;3,036491871E0;-4,003790379E0;-5,013561726E0
2,899395187E1;2,754138947E0;-3,575475216E0;-5,492724419E0
2,909395187E1;4,226323128E0;-5,515456200E0;-6,555736065E0
2,919395187E1;3,323630571E0;-8,712266922E0;-3,999603033E0
2,929395187E1;4,308875561E0;-1,264965725E1;-5,405984402E0
2,939395187E1;3,027518749E0;-9,445069313E0;-5,322834015E0
2,949395187E1;2,914458036E0;-7,070192814E0;-3,760320902E0
2,959395187E1;5,744568825E0;-9,439086914E0;-6,660421848E0
2,969395187E1;5,241477966E0;-7,638488293E0;-5,483152866E0
2,979395187E1;1,874178290E0;-6,185446382E-1;-4,218546391E0
2,989395187E1;3,360121250E0;-2,103291035E0;-5,867799282E0
2,999395187E1;3,897907972E0;-4,563112736E0;-6,541378975E0
3,009395187E1;3,386442184E0;-6,110671043E0;-6,470790863E0
3,019395187E1;5,901299000E0;-1,181037426E1;-4,352544308E0
3,029395187E1;4,800002098E0;-1,174576855E1;-5,891129494E0
3,039395187E1;3,574278831E0;-7,201797962E0;-4,716253281E0
3,049395187E1;4,119842529E0;-1,017607689E1;-3,087937593E0
3,059395187E1;4,342374802E0;-6,744768620E0;-3,674777269E0
3,069395187E1;3,000001431E0;-4,625924587E0;-3,887140274E0
3,079395187E1;3,266801119E0;-4,176073551E0;-6,294320107E0
3,089395187E1;7,860422134E-1;-1,070788130E-1;-3,687937975E0
3,099395187E1;4,917250633E0;-6,416952133E0;-7,368099213E0
3,109395187E1;4,904089928E0;-9,914062500E0;-6,395416737E0
3,119395187E1;4,415954113E0;-9,658030510E0;-4,027718544E0
3,129395187E1;5,923432350E0;-1,162792206E1;-5,947958946E0
3,139395187E1;4,145565033E0;-9,232706070E0;-3,448057413E0
3,149395187E1;5,652445316E0;-7,808976650E0;-5,623731613E0
3,159395187E1;3,930211306E0;-6,915257454E0;-5,499902725E0
3,169395187E1;3,187239647E0;-3,867997885E0;-5,645267010E0
3,179395187E1;2,441277266E0;-1,420140266E0;-4,401597023E0
3,189395187E1;4,433900356E0;-3,230908871E0;-5,496912003E0
3,199395187E1;4,768297195E0;-5,369493961E0;-6,023332596E0
3,209395187E1;5,821139336E0;-9,314660072E0;-6,198606968E0
3,219395187E1;4,133002758E0;-1,008395290E1;-5,785246849E0
3,229395187E1;4,588835716E0;-8,199604988E0;-3,747160196E0
3,239395187E1;5,203791142E0;-1,119182968E1;-4,406980991E0
3,249395187E1;4,338785648E0;-7,432705402E0;-4,690530777E0
3,259395187E1;4,350749969E0;-5,577669621E0;-5,835496426E0
3,269395187E1;1,344168067E0;-9,924231768E-1;-4,055834293E0
3,279395187E1;4,515854359E0;-3,227319479E0;-5,244469166E0
3,289395187E1;4,586442947E0;-5,743970871E0;-5,447260857E0
3,299395187E1;4,475774765E0;-8,981459618E0;-6,436692715E0
3,309395187E1;4,785047054E0;-1,047637558E1;-2,901297569E0
3,319395187E1;6,396014690E0;-1,044945621E1;-8,023134232E0
3,329395187E1;3,156731367E0;-7,473383427E0;-1,170688510E0
3,339395187E1;8,300103188E0;-1,222552872E1;-7,707880020E0
3,349395187E1;3,495315790E0;-6,334399700E0;-4,301696777E0
3,359395187E1;2,946162939E0;-1,414158225E0;-5,653641701E0
3,369395187E1;2,121237278E0;-3,690928817E-1;-3,902095556E0
3,379395187E1;5,093721390E0;-5,871986866E0;-5,751747608E0
3,389395187E1;4,314259052E0;-9,214161873E0;-5,270191669E0
3,399395187E1;1,350150228E0;-8,829515457E0;-4,466801643E0
3,409395187E1;4,362713814E0;-6,862615108E0;-5,240281820E-1
3,419395187E1;2,812164783E0;-9,896116257E0;-4,305884361E0
3,429395187E1;6,973283291E0;-8,542376518E0;-3,696911097E0
3,439395187E1;2,560918331E0;-5,638088226E0;-4,447659016E0
3,449395187E1;5,511867046E0;-3,722035646E0;-6,547959328E0
3,459395187E1;2,377269268E0;2,213360928E-2;-1,835893154E0
3,469395187E1;6,655037880E0;-5,171487808E0;-4,956732273E0
3,479395187E1;3,937389612E0;-9,040083885E0;-5,217549801E0
3,489395187E1;5,076971531E0;-7,513463020E0;-4,144368649E0
3,499395187E1;6,390631199E0;-9,309874535E0;-5,885745525E0
3,509395187E1;4,332205296E0;-1,036630630E1;-6,163911343E0
3,519395187E1;4,926821709E0;-5,771488190E0;-3,156731367E0
3,529395187E1;7,216753006E0;-8,824729919E0;-6,570092678E0
3,539395187E1;2,426322222E0;-4,478167534E0;-3,839882135E0
3,549395187E1;1,920240223E-1;-4,151547253E-1;-4,615755081E0
3,559395187E1;5,769693375E0;-2,267199516E0;-6,092126369E0
3,569395187E1;2,140379906E0;-6,971488953E0;-9,511469841E0
3,579395187E1;5,547759533E0;-7,500900745E0;-4,893920422E0
3,589395187E1;3,086741209E0;-9,376275063E0;-3,848855257E0
3,599395187E1;2,833700180E0;-7,759325504E0;-1,483550072E0
3,609395187E1;4,449453831E0;-7,533802032E0;-1,767697692E0
3,619395187E1;6,705287457E0;-7,677371502E0;-6,939784050E0
3,629395187E1;5,842674732E0;-7,014559746E0;-6,626324177E0
3,639395187E1;2,436491728E0;-1,031306505E0;-4,432703972E0
3,649395187E1;6,250052929E0;-7,755736351E0;-3,354737282E0
3,659395187E1;4,356731892E0;-6,863213539E0;-6,175277233E0
3,669395187E1;4,647459984E0;-1,274596786E1;-6,680760860E0
3,679395187E1;4,454837322E0;-9,196215630E0;-2,641676188E0
3,689395187E1;6,950551510E0;-1,093878841E1;-6,329015732E0
3,699395187E1;4,344767570E0;-1,022094154E1;-6,400800705E0
3,709395187E1;5,444269657E0;-4,645665169E0;-4,595416069E0
3,719395187E1;6,026323795E0;-5,098506927E0;-7,864011765E0
3,729395187E1;4,262215137E0;-3,397808075E-1;-4,399204254E0
3,739395187E1;2,557927370E0;-8,398807645E-1;-4,523631096E0
3,749395187E1;6,334998131E0;-9,860223770E0;-6,222535133E0
3,759395187E1;3,285345554E0;-8,577671051E0;-4,146761417E0
3,769395187E1;5,277968407E0;-1,127139091E1;-6,916453838E0
3,779395187E1;4,341178417E0;-1,036092186E1;-5,943173409E0
3,789395187E1;5,578267574E0;-7,445267677E0;-3,841078520E0
3,799395187E1;5,259424210E0;-8,689535141E0;-5,855237007E0
3,809395187E1;2,283949137E0;-2,897708178E0;-4,058227062E0
3,819395187E1;4,859224796E0;-2,757728100E0;-7,186244488E0
3,829395187E1;1,386042476E0;-3,499503136E-1;-3,006581545E0
3,839395187E1;4,737788677E0;-4,770689964E0;-5,271986485E0
3,849395187E1;4,771886349E0;-8,990432739E0;-3,945166349E0
3,859395187E1;5,208576679E0;-8,957531929E0;-4,046861172E0
3,869395187E1;4,329214573E0;-9,235098839E0;-5,859424591E0
3,879395187E1;4,177868366E0;-8,064410210E0;-4,089931965E0
3,889395187E1;6,215356827E0;-8,154141426E0;-4,708476543E0
3,899395187E1;2,959921598E0;-2,795415163E0;-4,576871395E0
3,909395187E1;2,922832966E0;-2,541177750E0;-4,558925152E0
3,919395187E1;3,476771355E0;-2,710469961E0;-5,503491879E0
3,929395187E1;5,564508915E0;-6,637091637E0;-3,658027649E0
3,939395187E1;6,445067883E0;-9,495318413E0;-4,649254322E0
3,949395187E1;3,784847260E0;-1,321436310E1;-6,366104603E0
3,959395187E1;2,248655081E0;-7,442276478E0;-2,438286304E0
3,969395187E1;9,921240807E0;-1,333101273E1;-7,192226887E0
3,979395187E1;4,537988186E0;-4,912465096E0;-3,353540897E0
3,989395187E1;4,520041943E0;-4,564309120E0;-4,837090969E0
3,999395187E1;1,262213945E0;-6,035895348E-1;-3,608376503E0
4,009395187E1;4,234099865E0;-9,960124493E-1;-3,546761274E0
4,019395187E1;4,889134884E0;-9,020342827E0;-5,642275810E0
4,029395187E1;6,519843578E0;-5,387440205E0;-4,085146427E0
4,039395187E1;5,269593716E0;-1,167757225E1;-6,860820770E0
4,049395187E1;6,095715523E0;-9,988240242E0;-6,364310265E0
4,059395187E1;4,176671982E0;-7,559525013E0;-2,869592667E0
4,069395187E1;5,440082073E0;-6,513861656E0;-3,914059639E0
4,079395187E1;4,167100430E0;-4,692923546E0;-4,294518471E0
4,089395187E1;2,793620348E0;-1,812563181E0;-5,642275810E0
4,099395187E1;5,635097504E0;-5,455635548E0;-6,308078766E0
4,109395187E1;4,374079704E0;-3,769293785E0;-5,121836662E0
4,119395187E1;6,888936520E0;-1,466680622E1;-8,496315002E0
4,129395187E1;4,074378967E0;-8,213363647E0;-6,656832695E0
4,139395187E1;3,614358664E0;-4,824528694E0;-2,612962246E0
4,149395187E1;9,296713829E0;-1,060678482E1;-4,910670280E0
4,159395187E1;3,759124279E0;-4,402195454E0;-2,766103029E0
4,169395187E1;4,898705959E0;-4,900500774E0;-5,975476265E0
4,179395187E1;1,384247899E0;-2,195414782E0;-3,248256683E0
4,189395187E1;4,214957237E0;-4,518247128E0;-5,981458187E0
4,199395187E1;3,748954773E0;-7,998009682E0;-4,541577339E0
4,209395187E1;4,760520458E0;-8,615956306E0;-4,740779877E0
4,219395187E1;4,848456860E0;-1,051525879E1;-5,079962254E0
4,229395187E1;4,848456860E0;-1,051525879E1;-5,079962254E0
4,239395187E1;2,272583246E0;-7,771887779E0;-3,242872953E0
4,249395187E1;5,020740032E0;-6,192625046E0;-4,049253941E0
4,259395187E1;4,895116806E0;-3,195016384E0;-6,693921566E0
4,269395187E1;2,038684845E0;-2,874976397E0;-2,975475073E0
4,279395187E1;6,490531445E0;-6,037091732E0;-6,363113403E0
4,289395187E1;3,552743435E0;-8,608778000E0;-3,482155085E0
4,299395187E1;4,601995945E0;-9,278169632E0;-4,240081787E0
4,309395187E1;5,787041664E0;-1,181336498E1;-6,872784615E0
4,319395187E1;5,443073273E0;-7,793423176E0;-4,039084435E0
4,329395187E1;5,033302307E0;-8,044071198E0;-4,935794830E0
4,339395187E1;6,518048763E0;-7,086942673E0;-5,771488190E0
4,349395187E1;4,656432629E0;-4,965705395E0;-5,300700188E0
4,359395187E1;5,331208706E0;-4,086941242E0;-5,100899696E0
4,369395187E1;3,200998545E0;-1,913061738E0;-5,382056236E0
4,379395187E1;6,364310265E0;-8,280961037E0;-5,490331650E0
4,389395187E1;4,634897232E0;-7,864011765E0;-5,094917774E0
4,399395187E1;5,794818401E0;-1,010130119E1;-4,219742775E0
4,409395187E1;3,000599623E0;-7,215556622E0;-2,821736097E0
4,419395187E1;6,165107727E0;-9,177671432E0;-5,608178139E0
4,429395187E1;6,690930367E0;-7,970492363E0;-2,898904562E0
4,439395187E1;4,137788773E0;-4,266402721E0;-5,662614822E0
4,449395187E1;3,434896946E0;-1,794018745E0;-4,680361271E0
4,459395187E1;4,861617565E0;-4,259822369E0;-5,358726501E0
4,469395187E1;3,987638950E0;-5,300102234E0;-2,918047190E0
4,479395187E1;7,963313580E0;-1,213878918E1;-4,740181446E0
4,489395187E1;3,540181160E0;-1,021555805E1;-5,137988567E0
4,499395187E1;4,201796532E0;-8,784051895E0;-3,628117323E0
4,509395187E1;6,270989895E0;-8,995218277E0;-5,478965759E0
4,519395187E1;6,884748936E0;-7,854440212E0;-4,747360229E0
4,529395187E1;4,773681164E-1;-1,000199914E0;-2,383849621E0
4,539395187E1;4,685146809E0;-3,503690481E0;-6,691528320E0
4,549395187E1;2,854637384E0;-3,447459221E0;-3,181257725E0
4,559395187E1;3,915854216E0;-4,886143684E0;-2,907877684E0
4,569395187E1;6,960721016E0;-1,117089272E1;-5,367101192E0
4,579395187E1;4,739583492E0;-9,348159790E0;-5,140381336E0
4,589395187E1;4,037888050E0;-9,855438232E0;-3,084348440E0
4,599395187E1;6,743572235E0;-8,982656479E0;-4,732405186E0
4,609395187E1;5,980261803E0;-6,409175396E0;-5,051846981E0
4,619395187E1;3,640081406E0;-4,933402061E0;-4,624728203E0
4,629395187E1;1,624726534E0;1,339980662E-1;-1,972284079E0
4,639395187E1;4,259822369E0;-3,476771355E0;-5,099104881E0
4,649395187E1;3,891926050E0;-6,876374245E0;-2,758924484E0
4,659395187E1;9,514460564E0;-1,053799057E1;-6,730412006E0
4,669395187E1;7,009175777E0;-1,041117096E1;-4,601995945E0
4,679395187E1;4,947160721E0;-1,023589706E1;-4,573282242E0
4,689395187E1;4,691128731E0;-6,512664795E0;-4,425525665E0
4,699395187E1;5,645864964E0;-5,709873199E0;-5,698507309E0
4,709395187E1;4,165904045E0;-4,387240410E0;-2,593819857E0
4,719395187E1;-1,496710539E0;2,309073925E0;-4,106681824E0
4,729395187E1;7,942974567E0;-6,385845661E0;-6,560521603E0
4,739395187E1;3,270988464E0;-5,743970871E0;-3,564109325E0
4,749395187E1;8,890532494E0;-1,072463131E1;-6,660421848E0
4,759395187E1;6,316453457E0;-8,857631683E0;-3,555136204E0
4,769395187E1;4,441677094E0;-9,001200676E0;-2,621337175E0
4,779395187E1;6,226722717E0;-7,880163193E0;-6,180062771E0
4,789395187E1;9,731011391E0;-7,748558044E0;-7,781459332E0
4,799395187E1;1,931007862E0;-1,791027784E0;-1,962114573E0
4,809395187E1;2,628515720E0;-2,305484533E0;-3,592225075E0
4,819395187E1;6,725028038E0;-6,207580090E0;-5,161318302E0
4,829395187E1;5,295914650E0;-6,842276573E0;-3,571886063E0
4,839395187E1;7,229315281E0;-8,571688652E0;-4,370490551E0
4,849395187E1;4,741976261E0;-1,121635628E1;-6,911069870E0
4,859395187E1;4,153940201E0;-8,515457153E0;-1,881356835E0
4,869395187E1;5,582455158E0;-8,744570732E0;-3,228515863E0
4,879395187E1;5,271388054E0;-6,299703598E0;-5,190630436E0
4,889395187E1;5,235496044E0;-5,861817360E0;-5,190630436E0
4,899395187E1;2,874378204E0;-1,995614052E0;-2,634497643E0
4,909395187E1;5,461019516E0;-3,285943747E0;-7,381259441E0
4,919395187E1;7,260422230E0;-7,074978352E0;-1,465005636E0
4,929395187E1;2,697907448E0;-7,546364307E0;-2,371287346E0
4,939395187E1;5,656034470E0;-1,069771194E1;-6,381059647E0
4,949395187E1;5,163113117E0;-9,270393372E0;-4,049852371E0
4,959395187E1;6,115456581E0;-7,007979393E0;-4,659423828E0
4,969395187E1;1,080897808E1;-1,008634567E1;-6,765107632E0
4,979395187E1;3,151945591E0;-5,228317261E0;-2,006381750E0
4,989395187E1;2,606382132E0;-1,373480201E0;-2,871985435E0
4,999395187E1;6,066403389E0;-3,860221148E0;-4,527220249E0
5,009395187E1;6,244070530E0;-8,391031265E0;-4,314259052E0
5,019395187E1;6,535995007E0;-1,100040436E1;-4,086342812E0
5,029395187E1;6,972685337E0;-9,180662155E0;-4,157529354E0
5,039395187E1;5,482554913E0;-9,870393753E0;-3,692125320E0
5,049395187E1;6,913462639E0;-7,700103283E0;-4,095315933E0
5,059395187E1;8,471190453E0;-8,167900085E0;-5,444868088E0
5,069395187E1;2,066202402E0;-2,954537868E0;-3,551547050E0
5,079395187E1;2,529811859E0;-1,455434322E0;-2,677568436E0
5,089395187E1;6,898507595E0;-7,499704361E0;-3,927818298E0
5,099395187E1;5,707480431E0;-9,007183075E0;-3,329014540E0
5,109395187E1;6,309275150E0;-9,114261627E0;-4,501497746E0
5,119395187E1;6,476174355E0;-9,683753014E0;-4,148556232E0
5,129395187E1;5,326423168E0;-7,831110477E0;-3,763910055E0
5,139395187E1;6,708876610E0;-8,604590416E0;-4,268795490E0
5,149395187E1;5,877968788E0;-5,181059361E0;-3,908675671E0
5,159395187E1;4,289732933E0;-4,869992256E0;-2,715255499E0
5,169395187E1;5,273781300E0;-3,928416491E0;-3,637688637E0
5,179395187E1;4,249054909E0;-5,717051506E0;-2,837887764E0
5,189395187E1;3,968496323E0;-1,091665554E1;-4,604389191E0
5,199395187E1;6,704689026E0;-9,115457535E0;-3,482753277E0
5,209395187E1;6,586244106E0;-9,626325607E0;-4,405784607E0
5,219395187E1;4,664807796E0;-9,811769485E0;-3,868596077E0
5,229395187E1;4,956133842E0;-5,770890236E0;-4,405784607E0
5,239395187E1;7,009175777E0;-7,737192154E0;-5,193621635E0
5,249395187E1;1,481755376E0;-2,426322222E0;-2,240280151E0
5,259395187E1;5,843272686E0;-5,421537876E0;-4,348356724E0
5,269395187E1;6,119045734E0;-8,126026154E0;-4,533800602E0
5,279395187E1;7,652246952E0;-1,207418346E1;-6,126224041E0
5,289395187E1;6,282355785E0;-1,071924686E1;-7,907680511E0
5,299395187E1;7,422535896E0;-7,268796921E0;-2,394019127E0
5,309395187E1;6,233901024E0;-9,530014038E0;-5,418546677E0
5,319395187E1;3,872783422E0;-5,402395248E0;-3,230908871E0
5,329395187E1;2,522633314E0;-3,409772158E0;-2,441875458E0
5,339395187E1;1,662413478E0;-1,933400750E0;-5,099104881E0
5,349395187E1;3,262015581E0;-1,672582984E0;-3,507279873E0
5,359395187E1;8,578269005E0;-1,265982628E1;-4,853242397E0
5,369395187E1;6,263213158E0;-9,286544800E0;-3,619144201E0
5,379395187E1;6,622136593E0;-1,138983536E1;-5,665007591E0
5,389395187E1;6,193821430E0;-1,037408257E1;-5,132604599E0
5,399395187E1;7,076773167E0;-8,345566750E0;-3,559323788E0
5,409395187E1;5,328217983E0;-6,114260197E0;-3,830909014E0
5,419395187E1;3,399602890E0;-4,350151539E0;-4,660022259E0
5,429395187E1;8,303094506E-1;-7,268198729E-1;-3,197409153E0
5,439395187E1;5,456233978E0;-6,533602238E0;-5,364708424E0
5,449395187E1;7,112665176E0;-1,076830006E1;-7,090531826E0
5,459395187E1;4,968098164E0;-6,940980434E0;-3,921238184E0
5,469395187E1;6,148357868E0;-9,558130264E0;-4,448257446E0
5,479395187E1;6,256632805E0;-9,838688850E0;-3,227917671E0
5,489395187E1;6,500700951E0;-7,484749317E0;-3,437887907E0
5,499395187E1;5,607579708E0;-5,384449005E0;-4,051646709E0
5,509395187E1;-5,222335458E-1;-1,735992789E0;-1,816152334E0
5,519395187E1;2,904886723E0;-9,595218897E-1;-4,071985722E0
5,529395187E1;3,932005882E0;-8,688937187E0;-3,973282099E0
5,539395187E1;7,875975609E0;-9,934401512E0;-4,907679081E0
5,549395187E1;5,261219025E0;-9,638887405E0;-4,258625984E0
5,559395187E1;4,922036171E0;-8,785248756E0;-2,790031195E0
5,569395187E1;7,877171993E0;-1,012044334E1;-5,039882660E0
5,579395187E1;3,748356581E0;-4,492524624E0;-3,214159012E0
5,589395187E1;5,700900078E0;-6,997809887E0;-5,250451088E0
5,599395187E1;-4,737788737E-1;-9,649057388E-1;-1,978864312E0
5,609395187E1;2,670988321E0;-5,634499073E0;-4,832305431E0
5,619395187E1;4,706682205E0;-4,645066738E0;-3,733999729E0
5,629395187E1;6,378068924E0;-9,923035622E0;-4,947160721E0
5,639395187E1;4,670789719E0;-6,586244106E0;-6,909275651E-1
5,649395187E1;5,612365723E0;-1,101356411E1;-5,282155991E0
5,659395187E1;7,835297585E0;-7,976474285E0;-5,067998409E0
5,669395187E1;3,428914785E0;-5,027918816E0;-2,059622049E0
5,679395187E1;3,860221148E0;-2,891726255E0;-3,324826956E0
5,689395187E1;2,064407825E0;-2,410170555E0;-3,365504980E0
5,699395187E1;6,154339790E0;-2,663809776E0;-4,052843571E0
5,709395187E1;6,252445698E0;-9,201599121E0;-4,025924206E0
5,719395187E1;8,516654015E0;-1,083350468E1;-5,962913990E0
5,729395187E1;7,639086246E0;-8,712266922E0;-3,023331404E0
5,739395187E1;5,507679462E0;-8,601000786E0;-4,314259052E0
5,749395187E1;5,556732178E0;-7,627720356E0;-4,080360889E0
5,759395187E1;7,049853802E0;-6,841079712E0;-5,109872818E0
5,769395187E1;4,300500393E0;-3,839283943E0;-3,592225075E0
5,779395187E1;6,008377552E0;-2,909672260E0;-4,518247128E0
5,789395187E1;4,867001057E0;-6,267998695E0;-4,995615482E0
5,799395187E1;8,821140289E0;-7,464410305E0;-4,034298897E0
5,809395187E1;5,827121258E0;-9,390632629E0;-5,164309502E0
5,819395187E1;5,036891460E0;-6,856633186E0;-2,849253654E0
5,829395187E1;4,447659016E0;-7,752147198E0;-1,823330879E0
5,839395187E1;6,082555294E0;-9,322437286E0;-6,518048763E0
5,849395187E1;8,614161491E0;-6,920641422E0;-5,021338463E0
5,859395187E1;5,128417015E0;-6,634100676E-1;-5,258227825E0
5,869395187E1;6,522236347E0;-1,955534339E0;-3,362514019E0
5,879395187E1;5,159523964E0;-5,348556995E0;-3,364906788E0
5,889395187E1;4,475176334E0;-7,909475327E0;-2,766103029E0
5,899395187E1;5,864210129E0;-9,238089561E0;-7,265805721E0
5,909395187E1;7,789236069E0;-7,556533813E0;-4,259224415E0
5,919395187E1;4,651647091E0;-9,661619186E0;-2,867797852E0
5,929395187E1;8,087141991E0;-7,021139622E0;-2,892922640E0
5,939395187E1;6,677769661E0;-6,629913330E0;-5,473581791E0
5,949395187E1;4,276572227E0;-4,952544689E0;-3,270988464E0
5,959395187E1;4,217349887E-1;-1,938186288E-1;-2,736790895E0
5,969395187E1;8,956933022E0;-5,212764263E0;-4,452444553E0
5,979395187E1;6,594020844E0;-1,106620693E1;-4,362115860E0
5,989395187E1;7,188039303E0;-9,105886459E0;-8,548358679E-1
5,999395187E1;5,413761139E0;-8,623732567E0;-3,611367464E0
6,009395187E1;6,553941250E0;-1,028734303E1;-4,691727161E0
6,019395187E1;6,845865726E0;-8,453244209E0;-3,912863255E0
6,029395187E1;6,268597126E0;-7,933403492E0;-5,868397713E0
6,039395187E1;5,483751297E0;-2,669193745E0;-3,326621771E0
6,049395187E1;3,862015724E0;1,892124534E0;-2,591426849E0
6,059395187E1;8,084749222E0;-6,661019802E0;-3,590430260E0
6,069395187E1;5,268995285E0;-4,261617184E0;-3,548556089E0
6,079395187E1;6,736393929E0;-1,260658646E1;-4,923830986E0
6,089395187E1;3,593421459E0;-9,180064201E0;-3,404388428E0
6,099395187E1;7,289734364E0;-8,539385796E0;-3,107080221E0
6,109395187E1;8,732605934E0;-1,297508049E1;-2,203191519E0
6,119395187E1;3,325425386E0;-6,166304111E0;-4,607978344E0
6,129395187E1;4,799404144E0;-5,626124382E0;-4,502095699E0
6,139395187E1;2,792423964E0;-3,716053486E0;-2,848057270E0
6,149395187E1;5,166104317E0;-4,025924206E0;-2,669193745E0
6,159395187E1;8,767900467E0;-9,291330338E0;-4,968696117E0
6,169395187E1;5,592026711E0;-7,295117855E0;-4,185645103E0
6,179395187E1;6,373881340E0;-6,131010056E0;-5,602196217E0
6,189395187E1;6,504290104E0;-6,894918442E0;-4,881956577E0
6,199395187E1;7,202396393E0;-6,616752625E0;-3,933202267E0
6,209395187E1;6,372086525E0;-5,638686657E0;-4,216751575E0
6,219395187E1;4,822135925E0;-5,760720730E0;-4,267001152E0
6,229395187E1;6,270989895E0;-5,244469166E0;-5,101497650E0
6,239395187E1;4,813760757E0;-4,734199524E0;-4,002593994E0
6,249395187E1;4,238885403E0;-5,858228207E0;-4,198207378E0
6,259395187E1;6,956533432E0;-7,114459991E0;-5,327021599E0
6,269395187E1;5,860022545E0;-7,070790768E0;-5,028516769E0
6,279395187E1;7,160521984E0;-7,197012424E0;-6,110072613E0
6,289395187E1;7,140182972E0;-6,784250259E0;-5,306084156E0
6,299395187E1;6,078367710E0;-4,651049137E0;-4,117449760E0
6,309395187E1;8,716454506E0;-9,382855415E0;-6,863213539E0
6,319395187E1;3,693919897E0;-3,245863914E0;-3,580260992E0
6,329395187E1;7,001399040E0;-3,425923824E0;-3,021536827E0
6,339395187E1;7,895118237E0;-7,965108395E0;-7,333403111E0
6,349395187E1;6,705287457E0;-5,842674732E0;-4,798805714E0
6,359395187E1;3,856631994E0;-2,565704107E0;-3,329612732E0
6,369395187E1;1,002473068E1;-6,614958286E0;-6,675376892E0
6,379395187E1;9,639486313E0;-8,143971443E0;-7,677969456E0
6,389395187E1;5,023132801E0;-2,365305185E0;-4,704887390E0
6,399395187E1;4,829314232E0;-4,035495281E0;-3,773481369E0
6,409395187E1;7,199405193E0;-8,121239662E0;-2,766103029E0
6,419395187E1;8,133204460E0;-9,165108681E0;-4,137788773E0
6,429395187E1;3,958925009E0;-8,306683540E0;-1,651047587E0
6,439395187E1;5,556134224E0;-8,915059090E0;-2,396411896E0
6,449395187E1;6,153741837E0;-1,003549862E1;-3,730410576E0
6,459395187E1;4,996213913E0;-6,246463299E0;-3,078964472E0
6,469395187E1;8,042875290E0;-5,755336761E0;-5,982655048E0
6,479395187E1;3,000599623E0;-2,074577332E0;-2,998805046E0
6,489395187E1;6,550950050E0;-3,372085333E0;-4,168895245E0
6,499395187E1;5,090131760E0;-4,819743156E0;-3,005983353E0
6,509395187E1;5,415555954E0;-7,839485168E0;-3,100499868E0
6,519395187E1;8,459226608E0;-1,173679543E1;-5,539384365E0
6,529395187E1;8,401200294E0;-9,787840843E0;-4,255635262E0
6,539395187E1;4,974080086E0;-7,591827869E0;-1,512263894E0
6,549395187E1;7,240083218E0;-7,376473904E0;-4,135395527E0
6,559395187E1;1,023230743E1;-9,471389771E0;-3,375076294E0
6,569395187E1;1,672582984E0;-3,643072367E0;-1,716850281E0
6,579395187E1;3,799204111E0;-3,316452265E0;-3,169293642E0
6,589395187E1;5,930611134E0;-5,674578667E0;-4,371088982E0
6,599395187E1;6,786045074E0;-6,123831272E0;-2,245664120E0
6,609395187E1;6,300302029E0;-1,100219822E1;-4,540380955E0
6,619395187E1;6,342774391E0;-9,657432556E0;-1,895115495E0
6,629395187E1;4,242474556E0;-7,838288784E0;-3,384647608E0
6,639395187E1;6,831508636E0;-7,880163193E0;-2,008176327E0
6,649395187E1;7,249654293E0;-6,372684956E0;-3,312862873E0
6,659395187E1;2,312064886E0;-3,092125177E0;-2,627917528E0
6,669395187E1;2,137987137E0;-1,019940615E0;-3,769891977E0
6,679395187E1;6,074778557E0;-5,786443233E0;-3,680161238E0
6,689395187E1;6,324230194E0;-7,819744587E0;-2,709871531E0
6,699395187E1;6,738786697E0;-1,136172009E1;-5,309673309E0
6,709395187E1;6,886543751E0;-1,016052341E1;-4,342973232E0
6,719395187E1;4,688735962E0;-8,432307243E0;-2,122433662E0
6,729395187E1;6,035895348E0;-5,955137253E0;-2,797209740E0
6,739395187E1;1,043569756E1;-7,969893932E0;-6,771090031E0
6,749395187E1;1,369890928E0;-3,799802303E0;-3,134597778E0
6,759395187E1;4,963910580E0;-2,103889227E0;-3,114258766E0
6,769395187E1;7,585845947E0;-4,858027935E0;-3,739981890E0
6,779395187E1;7,050451756E0;-8,651848793E0;-3,565903902E0
6,789395187E1;5,059623718E0;-7,723433495E0;-3,829712629E0
6,799395187E1;5,813961029E0;-8,321041107E0;-4,143770695E0
6,809395187E1;8,679366112E0;-1,327179050E1;-4,409972191E0
6,819395187E1;5,295914650E0;-4,033700943E0;-3,075973511E0
6,829395187E1;4,960919380E0;-7,155735970E0;-4,089334011E0
6,839395187E1;2,154138565E0;-1,744965911E0;-2,596212626E0
6,849395187E1;2,081157446E0;-4,809573591E-1;-1,020538807E0
6,859395187E1;8,845068932E0;-1,383230972E1;-4,180859566E0
6,869395187E1;5,130809784E0;-7,998009682E0;-3,708875179E0
6,879395187E1;6,522236347E0;-7,914859295E0;-3,811168194E0
6,889395187E1;9,762118340E0;-1,064267731E1;-4,128815651E0
6,899395187E1;7,648657799E0;-7,977670670E0;-4,255036831E0
6,909395187E1;2,500499725E0;-2,764308453E0;-4,157529473E-1
6,919395187E1;6,811169624E0;-4,543970108E0;-3,279961586E0
6,929395187E1;6,042475224E0;-3,099901676E0;-3,831507206E0
6,939395187E1;5,672784328E0;-5,768496990E0;-1,672582984E0
6,949395187E1;6,640681267E0;-9,921240807E0;-4,225126743E0
6,959395187E1;5,516652584E0;-8,276773453E0;-3,541377544E0
6,969395187E1;6,501298904E0;-1,010189915E1;-3,983451605E0
6,979395187E1;6,241079807E0;-7,950153351E0;-1,939980984E0
6,989395187E1;7,383054256E0;-7,491329670E0;-3,997808456E0
6,999395187E1;7,445865631E0;-6,282954216E0;-3,765106440E0
7,009395187E1;1,937588096E0;-1,040877819E0;-2,457428932E0
7,019395187E1;7,844869137E0;-5,635695457E0;-3,876971006E0
7,029395187E1;6,676573277E0;-7,206583500E0;-3,187239647E0
7,039395187E1;5,764309883E0;-7,631309509E0;-3,728017569E0
7,049395187E1;8,002795219E0;-1,020060253E1;-4,342973232E0
7,059395187E1;4,169493675E0;-8,997611046E0;-2,321636200E0
7,069395187E1;6,915257454E0;-7,194021225E0;-2,857628345E0
7,079395187E1;6,001199245E0;-6,281159401E0;-3,182454109E0
7,089395187E1;4,007977962E0;-5,063810825E0;-4,074976921E0
7,099395187E1;1,618744493E0;-7,220342159E-1;-1,769492388E0
7,109395187E1;4,375276089E0;-4,945366383E0;-2,405385017E0
7,119395187E1;7,154539585E0;-9,087342262E0;-3,367299557E0
7,129395187E1;6,994818687E0;-9,425926208E0;-3,699902058E0
7,139395187E1;6,362515450E0;-9,863813400E0;-3,422334671E0
7,149395187E1;9,183652878E0;-9,680164337E0;-3,196810961E0
7,159395187E1;6,014957905E0;-6,872784615E0;-3,413361549E0
7,169395187E1;3,315255880E0;-4,846662045E0;-2,868994236E0
7,179395187E1;2,931207657E0;-2,456830740E0;-2,688336134E0
7,189395187E1;7,417750359E0;-6,504290104E0;-2,683550596E0
7,199395187E1;7,911269665E0;-1,322213936E1;-2,611167669E0
7,209395187E1;6,808776855E0;-6,346961975E0;-3,649054527E0
7,219395187E1;5,726622581E0;-1,015992451E1;-3,653241873E0
7,229395187E1;8,458029747E0;-1,107458115E1;-2,928814888E0
7,239395187E1;4,205984116E0;-5,097908497E0;-2,274377823E0
7,249395187E1;4,359723091E0;-4,004986763E0;-2,754737139E0
7,259395187E1;4,394418716E0;-2,517249346E0;-2,829512835E0
7,269395187E1;6,255436420E0;-7,322037220E0;-2,395215511E0
7,279395187E1;8,660821915E0;-1,157348537E1;-3,570091486E0
7,289395187E1;7,447660446E0;-9,933204651E0;-4,173680782E0
7,299395187E1;4,372285366E0;-8,851649284E0;-2,441875458E0
7,309395187E1;8,530412674E0;-9,068798065E0;-2,622533560E0
7,319395187E1;6,556932449E0;-6,166902065E0;-3,587439299E0
7,329395187E1;1,960319996E0;-3,469592810E0;-1,800599098E0
7,339395187E1;5,115256786E0;-3,561716557E0;-2,407777786E0
7,349395187E1;6,217151642E0;-8,069794655E0;-2,520838737E0
7,359395187E1;8,930612564E0;-1,164526939E1;-4,189832687E0
7,369395187E1;7,039085865E0;-8,560322762E0;-3,459423304E0
7,379395187E1;5,660222054E0;-1,017846966E1;-2,352742910E0
7,389395187E1;6,522236347E0;-6,376872540E0;-3,172284603E0
7,399395187E1;6,707081795E0;-5,946164131E0;-3,034099102E0
7,409395187E1;2,682354212E0;-2,270788670E0;-2,469991207E0
7,419395187E1;4,737788677E0;-2,286940336E0;-2,944966555E0
7,429395187E1;6,625127792E0;-8,123632431E0;-3,002394199E0
7,439395187E1;7,000202656E0;-1,046261692E1;-3,203989506E0
7,449395187E1;6,586244106E0;-1,027238750E1;-3,354737282E0
7,459395187E1;6,191428661E0;-8,599804878E0;-3,557528973E0
7,469395187E1;7,999804497E0;-8,346165657E0;-2,800798893E0
7,479395187E1;6,597609997E0;-6,882356167E0;-3,178864956E0
7,489395187E1;4,073780537E0;-4,034298897E0;-2,501097918E0
7,499395187E1;2,392224550E0;-2,671586514E0;-1,751546144E0
7,509395187E1;6,736992359E0;-5,523830891E0;-2,754138947E0
7,519395187E1;6,097510338E0;-8,184649467E0;-2,725425005E0
7,529395187E1;6,863811970E0;-8,974281311E0;-3,604787350E0
7,539395187E1;6,276971817E0;-9,382855415E0;-3,078964472E0
7,549395187E1;5,337789059E0;-9,963115692E0;-2,274976015E0
7,559395187E1;8,240880966E0;-8,955737114E0;-2,703291416E0
7,569395187E1;7,125825882E0;-7,159923553E0;-2,915654421E0
7,579395187E1;5,880361557E0;-4,823930264E0;-2,769692183E0
7,589395187E1;3,587439299E0;-1,618146300E0;-2,469991207E0
7,599395187E1;6,446264267E0;-5,849853039E0;-3,068196774E0
7,609395187E1;7,379465103E0;-9,927223206E0;-2,915654421E0
7,619395187E1;6,152545452E0;-1,031844902E1;-3,211168051E0
7,629395187E1;6,521637917E0;-8,923434258E0;-2,778665304E0
7,639395187E1;7,199405193E0;-8,889934540E0;-1,881955028E0
7,649395187E1;6,966702938E0;-7,803592682E0;-2,868396044E0
7,659395187E1;3,943371773E0;-4,242474556E0;-2,002194405E0
7,669395187E1;2,662613392E0;-2,326421738E0;-1,512862086E0
7,679395187E1;6,283552170E0;-5,115256786E0;-3,090928555E0
7,689395187E1;6,939185619E0;-7,912466049E0;-3,296113253E0
7,699395187E1;7,040880680E0;-9,901499748E0;-3,288336515E0
7,709395187E1;6,716653347E0;-9,855438232E0;-3,397808075E0
7,719395187E1;5,360520840E0;-9,245268822E0;-2,577668190E0
7,729395187E1;7,968697548E0;-8,972486496E0;-2,206780672E0
7,739395187E1;6,333801746E0;-6,390631199E0;-2,808575630E0
7,749395187E1;4,091726780E0;-4,308277130E0;-2,264806747E0
7,759395187E1;3,632304668E0;-2,753540754E0;-2,418545485E0
7,769395187E1;6,365506649E0;-6,507281303E0;-3,135794163E0
7,779395187E1;8,026124954E0;-1,043390274E1;-3,171088219E0
7,789395187E1;7,067201614E0;-1,010070229E1;-3,930809498E0
7,799395187E1;5,252245903E0;-8,752944946E0;-2,824128866E0
7,809395187E1;6,155536175E0;-9,656833649E0;-2,200200319E0
7,819395187E1;7,235895634E0;-7,215556622E0;-2,612962246E0
7,829395187E1;5,646463394E0;-5,683551788E0;-2,809173822E0
7,839395187E1;2,867797852E0;-2,079362869E0;-1,734796405E0
7,849395187E1;5,199603558E0;-3,702294827E0;-2,778067112E0
7,859395187E1;7,052246571E0;-9,431310654E0;-2,955136061E0
7,869395187E1;7,064210415E0;-9,886545181E0;-4,006781578E0
7,879395187E1;7,068397999E0;-8,787042618E0;-3,018545866E0
7,889395187E1;7,450651646E0;-9,356534958E0;-2,394617319E0
7,899395187E1;6,519843578E0;-7,837092400E0;-2,483151674E0
7,909395187E1;5,426323414E0;-5,267200947E0;-2,248056889E0
7,919395187E1;1,473978758E0;-1,674377680E0;-1,530808330E0
7,929395187E1;7,228118896E0;-6,186044693E0;-3,307479143E0
7,939395187E1;5,139782906E0;-8,642875671E0;-2,383251429E0
7,949395187E1;7,537989616E0;-1,144905853E1;-4,110869408E0
7,959395187E1;7,274180889E0;-1,013719273E1;-3,071187973E0
7,969395187E1;5,526822090E0;-8,928817749E0;-2,331207514E0
7,979395187E1;8,278568268E0;-9,227322578E0;-2,727817774E0
7,989395187E1;5,870192051E0;-5,877968788E0;-2,567498684E0
7,999395187E1;2,756531715E0;-3,705883980E0;-2,208575249E0
8,009395187E1;5,218147755E0;-3,596412420E0;-2,818146944E0
8,019395187E1;6,649653912E0;-7,212565422E0;-2,277967215E0
8,029395187E1;7,790432453E0;-9,617352486E0;-3,402593851E0
8,039395187E1;6,865606308E0;-9,553942680E0;-3,359523058E0
8,049395187E1;5,056034088E0;-9,022137642E0;-2,306680918E0
8,059395187E1;7,412366390E0;-9,211769104E0;-2,522633314E0
8,069395187E1;7,421937466E0;-7,827520847E0;-2,685943365E0
8,079395187E1;4,677370071E0;-4,785645485E0;-1,861616015E0
8,089395187E1;4,086941242E0;-2,706880569E0;-2,204387903E0
8,099395187E1;6,160321712E0;-5,778068542E0;-2,479562521E0
8,109395187E1;8,021938324E0;-1,014078236E1;-2,921636343E0
8,119395187E1;6,948158741E0;-1,009531879E1;-3,181855917E0
8,129395187E1;6,250052929E0;-7,569096088E0;-2,601596355E0
8,139395187E1;9,715457916E0;-9,962516785E0;-2,441277266E0
8,149395187E1;7,091129780E0;-8,801400185E0;-2,558525562E0
8,159395187E1;4,064807415E0;-3,773481369E0;-3,037090063E0
8,169395187E1;2,773281336E0;-2,288734913E0;-1,869990945E0
8,179395187E1;6,371488571E0;-7,287341595E0;-2,273779631E0
8,189395187E1;7,155138016E0;-1,035314560E1;-2,533999205E0
8,199395187E1;6,867999077E0;-9,878767967E0;-3,212364435E0
8,209395187E1;6,608976364E0;-8,854042053E0;-2,553141832E0
8,219395187E1;7,584649563E0;-9,026325226E0;-2,607578516E0
8,229395187E1;7,256234646E0;-7,665407181E0;-2,568096876E0
8,239395187E1;2,560918331E0;-3,646063566E0;-1,914856315E0
8,249395187E1;1,574477315E0;-1,754537225E0;-1,336391449E0
8,259395187E1;6,217749596E0;-7,563712597E0;-2,330609322E0
8,269395187E1;7,034898758E0;-9,997811317E0;-2,775076151E0
8,279395187E1;7,097710133E0;-1,028913784E1;-3,976273060E0
8,289395187E1;7,761120319E0;-9,213563919E0;-3,010769129E0
8,299395187E1;7,317251682E0;-9,251250267E0;-2,299502611E0
8,309395187E1;6,768697262E0;-7,832904816E0;-2,450250387E0
8,319395187E1;4,434498787E0;-4,608576298E0;-2,023131609E0
8,329395187E1;2,398804665E0;-2,604587555E0;-1,773081541E0
8,339395187E1;6,445665836E0;-5,775675774E0;-2,335394859E0
8,349395187E1;6,651448727E0;-1,009352398E1;-2,825923443E0
8,359395187E1;7,225726128E0;-9,240483284E0;-3,411566973E0
8,369395187E1;5,048855782E0;-8,559126854E0;-2,433500528E0
8,379395187E1;7,258627415E0;-9,954142570E0;-2,677568436E0
8,389395187E1;7,258627415E0;-7,161119938E0;-2,370090723E0
8,399395187E1;4,152743816E0;-4,977071285E0;-2,030309916E0
8,409395187E1;3,327219963E0;-1,954936147E0;-2,188236237E0
8,419395187E1;5,295316696E0;-5,193621635E0;-2,414358139E0
8,429395187E1;7,685746193E0;-1,053081226E1;-2,933600664E0
8,439395187E1;8,173882484E0;-1,007677460E1;-3,755535126E0
8,449395187E1;5,599205017E0;-8,343772888E0;-2,038684845E0
8,459395187E1;5,394020557E0;-1,034776115E1;-2,633301258E0
8,469395187E1;6,719046116E0;-7,670791149E0;-2,236690998E0
8,479395187E1;5,177470207E0;-4,972883701E0;-1,316650629E0
8,489395187E1;2,181656122E0;-1,628315806E0;-1,842473388E0
8,499395187E1;5,036891460E0;-3,853042603E0;-2,296511650E0
8,509395187E1;7,412964344E0;-1,009232807E1;-2,690729141E0
8,519395187E1;7,706683636E0;-1,059242725E1;-3,529413462E0
8,529395187E1;5,839085579E0;-8,626724243E0;-2,251047850E0
8,539395187E1;5,275575638E0;-9,378668785E0;-2,349751949E0
8,549395187E1;7,177869797E0;-7,850851059E0;-2,530410051E0
8,559395187E1;5,983253002E0;-6,028716564E0;-2,100898266E0
8,569395187E1;2,167897224E0;-2,007578135E0;-1,501496196E0
8,579395187E1;4,771288395E0;-4,140181541E0;-2,585444927E0
8,589395187E1;7,707880020E0;-1,126002502E1;-2,428116798E0
8,599395187E1;7,900502205E0;-9,989436150E0;-3,288336515E0
8,609395187E1;6,327819347E0;-8,950951576E0;-2,952743053E0
8,619395187E1;8,238488197E0;-9,750154495E0;-2,851646423E0
8,629395187E1;6,643671989E0;-7,733603001E0;-2,477169752E0
8,639395187E1;2,331207514E0;-3,004188776E0;-2,117648125E0
8,649395187E1;1,473380566E0;-1,809572101E0;-2,154138565E0
8,659395187E1;6,820142746E0;-8,540582657E0;-2,074577332E0
8,669395187E1;7,861618996E0;-1,065224838E1;-2,924627542E0
8,679395187E1;7,111468792E0;-9,641879082E0;-3,121437073E0
8,689395187E1;6,186044693E0;-8,882756233E0;-2,791227579E0
8,699395187E1;8,261817932E0;-9,893125534E0;-2,459821701E0
8,709395187E1;6,767500877E0;-7,567301750E0;-2,466402054E0
8,719395187E1;2,676970243E0;-3,887140274E0;-2,093121529E0
8,729395187E1;1,905883193E0;-1,922034740E0;-1,679163337E0
8,739395187E1;6,259624004E0;-8,329415321E0;-2,005783558E0
8,749395187E1;7,031907558E0;-1,056311512E1;-2,827718258E0
8,759395187E1;7,052246571E0;-9,459425926E0;-3,113660574E0
8,769395187E1;6,613761902E0;-8,840283394E0;-2,865405083E0
8,779395187E1;8,894122124E0;-9,733404160E0;-2,555534601E0
8,789395187E1;7,080362320E0;-7,441678524E0;-2,841476917E0
8,799395187E1;1,779661894E0;-2,252244234E0;-1,639083505E0
8,809395187E1;1,953141451E0;-1,395613790E0;-1,682154298E0
8,819395187E1;6,140581131E0;-8,109275818E0;-2,134397745E0
8,829395187E1;7,306483746E0;-1,033759212E1;-2,410768747E0
8,839395187E1;7,434499741E0;-9,951749802E0;-2,899502754E0
8,849395187E1;6,098108292E0;-8,352147102E0;-2,015354872E0
8,859395187E1;8,149355888E0;-8,988637924E0;-2,763111830E0
8,869395187E1;6,180660725E0;-6,203392506E0;-2,250449657E0
8,879395187E1;2,413161755E0;-3,071187973E0;-1,576271892E0
8,889395187E1;5,420341492E0;-4,435695171E0;-2,660818815E0
8,899395187E1;6,732804775E0;-9,416355133E0;-2,067398787E0
8,909395187E1;8,882756233E0;-1,030827999E1;-3,399602890E0
8,919395187E1;7,405188084E0;-9,111868858E0;-3,391227961E0
8,929395187E1;5,603392601E0;-9,064012527E0;-2,164906263E0
8,939395187E1;8,298907280E0;-9,455238342E0;-2,567498684E0
8,949395187E1;5,753541946E0;-6,125626087E0;-1,845464468E0
8,959395187E1;2,072184324E0;-2,659024239E0;-1,683350682E0
8,969395187E1;5,622535229E0;-5,036891460E0;-2,329412937E0
8,979395187E1;6,458826542E0;-8,738588333E0;-2,056631088E0
8,989395187E1;8,331210136E0;-1,110389328E1;-3,330809116E0
8,999395187E1;7,250252724E0;-9,467801094E0;-3,084946632E0
9,009395187E1;5,853442192E0;-9,504889488E0;-2,597409010E0
9,019395187E1;8,687142372E0;-9,705288887E0;-2,574677229E0
9,029395187E1;5,079364300E0;-4,995615482E0;-1,846660852E0
9,039395187E1;2,125424623E0;-2,703889608E0;-1,412961721E0
9,049395187E1;5,541777134E0;-5,322834015E0;-2,376072884E0
9,059395187E1;7,321439266E0;-1,044407272E1;-2,312064886E0
9,069395187E1;8,899505615E0;-9,930811882E0;-3,228515863E0
9,079395187E1;7,329813957E0;-8,979664803E0;-2,880958557E0
9,089395187E1;7,439285755E0;-1,051466084E1;-2,288734913E0
9,099395187E1;7,697710514E0;-8,770293236E0;-2,901297569E0
9,109395187E1;4,015754700E0;-4,628317356E0;-1,276570916E0
9,119395187E1;3,761517286E0;-2,967100143E0;-1,976471543E0
9,129395187E1;5,459224701E0;-5,662016392E0;-2,204986095E0
9,139395187E1;8,467600822E0;-1,100219822E1;-2,879761934E0
9,149395187E1;7,463213921E0;-1,002592659E1;-3,556332588E0
9,159395187E1;4,500899315E0;-9,277571678E0;-2,655434847E0
9,169395187E1;7,110272408E0;-9,809376717E0;-2,227119684E0
9,179395187E1;6,791429043E0;-7,138388157E0;-2,232503414E0
9,189395187E1;4,368695736E0;-5,023132801E0;-1,513460279E0
9,199395187E1;3,078964472E0;-1,744965911E0;-1,954337835E0
9,209395187E1;6,574878216E0;-6,133402824E0;-2,679363251E0
9,219395187E1;7,959724426E0;-1,113799095E1;-2,877369165E0
9,229395187E1;7,599604607E0;-9,879366875E0;-2,977867842E0
9,239395187E1;4,884349346E0;-8,185248375E0;-1,791027784E0
9,249395187E1;7,321439266E0;-1,059362411E1;-2,520838737E0
9,259395187E1;6,579664230E0;-7,454838753E0;-2,708675146E0
9,269395187E1;4,154538155E0;-5,097908497E0;-1,526620865E0
9,279395187E1;3,504288673E0;-2,584248543E0;-2,410768747E0
9,289395187E1;5,803791523E0;-6,202196121E0;-2,021337032E0
9,299395187E1;8,064410210E0;-1,094895840E1;-2,786442041E0
9,309395187E1;7,326822758E0;-9,629316330E0;-3,518645763E0
9,319395187E1;5,487938881E0;-8,953344345E0;-2,051247120E0
9,329395187E1;6,574280262E0;-1,003908730E1;-2,333600283E0
9,339395187E1;6,831508636E0;-7,330412388E0;-2,615953445E0
9,349395187E1;5,677569866E0;-5,542375565E0;-1,725823283E0
9,359395187E1;2,709871531E0;-1,678565025E0;-1,498505235E0
9,369395187E1;6,510870457E0;-9,025128365E0;-2,319243431E0
9,379395187E1;7,745566845E0;-1,122473145E1;-2,955734253E0
9,389395187E1;6,668796539E0;-8,955139160E0;-2,540579557E0
9,399395187E1;6,796812534E0;-8,972486496E0;-2,703291416E0
9,409395187E1;8,403593063E0;-9,459425926E0;-2,051247120E0
9,419395187E1;6,278168201E0;-7,131807804E0;-1,861616015E0
9,429395187E1;3,286541939E0;-3,869194269E0;-2,343769789E0
9,439395187E1;1,813161373E0;-1,782652855E0;-2,412563324E0
9,449395187E1;6,721438885E0;-8,226524353E0;-2,146361828E0
9,459395187E1;7,140182972E0;-1,155075264E1;-2,739781857E0
9,469395187E1;7,082156658E0;-8,780462265E0;-2,517249346E0
9,479395187E1;6,774080753E0;-9,515059471E0;-2,858824968E0
9,489395187E1;7,500900745E0;-9,830313683E0;-1,968694806E0
9,499395187E1;6,461219311E0;-6,883552551E0;-2,608176708E0
9,509395187E1;4,521836758E0;-4,057629108E0;-1,856830359E0
9,519395187E1;1,743171334E0;-1,966900229E0;-1,837089539E0
9,529395187E1;6,201598167E0;-6,644868374E0;-2,277967215E0
9,539395187E1;6,956533432E0;-9,503094673E0;-2,609373093E0
9,549395187E1;7,147361279E0;-1,008993530E1;-3,454637766E0
9,559395187E1;7,246663570E0;-8,516056061E0;-2,886342287E0
9,569395187E1;8,317451477E0;-1,022692394E1;-2,614158630E0
9,579395187E1;6,575476646E0;-8,476573944E0;-2,075773716E0
9,589395187E1;5,119443893E0;-5,417350292E0;-1,935793519E0
9,599395187E1;2,465205431E0;-2,578864574E0;-1,259222865E0
9,609395187E1;5,941977024E0;-6,141777515E0;-1,940579176E0
9,619395187E1;7,716254711E0;-1,062054348E1;-2,424527645E0
9,629395187E1;7,460821152E0;-9,569496155E0;-3,367299557E0
9,639395187E1;5,060221672E0;-8,856434822E0;-2,300698996E0
9,649395187E1;6,480959892E0;-9,687940598E0;-2,473580360E0
9,659395187E1;7,087540627E0;-7,575676441E0;-2,213361025E0
9,669395187E1;5,051248550E0;-4,853242397E0;-1,744965911E0
9,679395187E1;3,338585854E0;-2,477169752E0;-1,808375716E0
9,689395187E1;5,843272686E0;-5,520840168E0;-2,137987137E0
9,699395187E1;8,176873207E0;-1,039681435E1;-2,653042078E0
9,709395187E1;6,787839413E0;-1,089571762E1;-2,759522676E0
9,719395187E1;3,671188116E0;-8,072785378E0;-2,583052158E0
9,729395187E1;8,099106789E0;-1,080419254E1;-2,354537487E0
9,739395187E1;4,792823792E0;-4,753342152E0;-4,331009090E-1
9,749395187E1;4,220939159E0;-4,248456478E0;-1,841875196E0
9,759395187E1;3,201596737E0;-1,777867198E0;-1,921436548E0
9,769395187E1;6,107679844E0;-6,452844620E0;-2,104487419E0
9,779395187E1;8,174480438E0;-1,070967579E1;-2,589632273E0
9,789395187E1;7,401000500E0;-9,923035622E0;-3,502494097E0
9,799395187E1;5,258825779E0;-9,257830620E0;-3,096312523E0
9,809395187E1;7,094718933E0;-9,607182503E0;-2,164906263E0
9,819395187E1;6,794419765E0;-7,557132244E0;-1,985444546E0
9,829395187E1;4,908875465E0;-5,034498692E0;-1,361516118E0
9,839395187E1;3,748356581E0;-2,785843849E0;-1,902294040E0
9,849395187E1;6,069993019E0;-5,928816319E0;-1,884945989E0
9,859395187E1;8,462815285E0;-1,062293625E1;-3,126821041E0
9,869395187E1;7,678567886E0;-8,784051895E0;-2,690729141E0
9,879395187E1;4,728217602E0;-9,534201622E0;-2,344367981E0
9,889395187E1;7,588837147E0;-8,276773453E0;-2,046461582E0
9,899395187E1;6,043073654E0;-7,417151928E0;-2,312064886E0
9,909395187E1;1,881955028E0;-2,521436930E0;-1,156929731E0
9,919395187E1;4,232305050E0;-2,769692183E0;-1,911267042E0
9,929395187E1;6,510870457E0;-1,020419216E1;-2,530410051E0
9,939395187E1;8,295916557E0;-1,133719349E1;-3,026920557E0
9,949395187E1;7,161119938E0;-8,304290771E0;-2,234298229E0
9,959395187E1;4,781457901E0;-8,837292671E0;-2,175075769E0
9,969395187E1;7,040880680E0;-8,539983749E0;-2,182254314E0
9,979395187E1;7,246065140E0;-7,208976269E0;-2,072782516E0
9,989395187E1;1,741974831E0;-2,660220623E0;-1,814955950E0
9,999395187E1;4,051048756E0;-3,178864956E0;-2,301895380E0
1,000939519E2;6,705287457E0;-1,017966557E1;-2,182254314E0
1,001939519E2;8,033902168E0;-1,058764172E1;-2,903690338E0
1,002939519E2;7,332805157E0;-9,220742226E0;-2,955734253E0
1,003939519E2;5,355136871E0;-8,997013092E0;-2,489133835E0
1,004939519E2;7,095915318E0;-7,867002487E0;-1,867598057E0
1,005939519E2;7,514659405E0;-7,500302792E0;-1,757528186E0
1,006939519E2;1,419542074E0;-2,376072884E0;-1,892124534E0
1,007939519E2;3,270390272E0;-2,841476917E0;-2,041077614E0
1,008939519E2;7,015157700E0;-1,038963604E1;-2,143969059E0
1,009939519E2;8,126624107E0;-1,044108200E1;-2,631506681E0
1,010939519E2;7,073183537E0;-8,663214684E0;-2,408974171E0
1,011939519E2;7,513463020E0;-1,036810017E1;-2,405983210E0
1,012939519E2;7,842476368E0;-8,722436905E0;-2,370688915E0
1,013939519E2;3,930809498E0;-4,188037872E0;-1,840080619E0
1,014939519E2;2,452643156E0;-3,060420275E0;-1,648654819E0
1,015939519E2;5,793622017E0;-6,045466423E0;-2,191825628E0
1,016939519E2;7,651648521E0;-1,102672482E1;-2,928216696E0
1,017939519E2;7,278966427E0;-9,549755096E0;-2,704487801E0
1,018939519E2;7,590631485E0;-9,143573761E0;-2,518445730E0
1,019939519E2;7,851449490E0;-1,014915752E1;-2,388635159E0
1,020939519E2;8,055437088E0;-8,913264275E0;-2,386840582E0
1,021939519E2;3,748356581E0;-4,378267288E0;-6,939185858E-1
1,022939519E2;2,274377823E0;-2,614757061E0;-1,944168448E0
1,023939519E2;5,397609711E0;-6,183053493E0;-2,161317110E0
1,024939519E2;6,240481377E0;-9,479764938E0;-1,886740685E0
1,025939519E2;6,628118515E0;-9,456435204E0;-3,289532900E0
1,026939519E2;7,468597889E0;-9,410971642E0;-2,730210543E0
1,027939519E2;7,438089371E0;-1,021496010E1;-2,119442701E0
1,028939519E2;7,122236729E0;-7,986643791E0;-2,369492531E0
1,029939519E2;4,648656368E0;-5,093122959E0;-1,364507079E0
1,030939519E2;2,833700180E0;-3,273979664E0;-1,512263894E0
1,031939519E2;5,348556995E0;-4,568496704E0;-1,700100541E0
1,032939519E2;6,522236347E0;-1,000678444E1;-2,157727718E0
1,033939519E2;7,230511665E0;-1,001456070E1;-2,954537868E0
1,034939519E2;6,431907177E0;-9,559326172E0;-2,894717216E0
1,035939519E2;6,350551128E0;-1,025803089E1;-2,195414782E0
1,036939519E2;6,946962357E0;-7,795815945E0;-2,474776745E0
1,037939519E2;5,297709465E0;-4,754538536E0;-1,508076429E0
1,038939519E2;3,077169895E0;-2,918047190E0;-2,015953064E0
1,039939519E2;5,245665550E0;-4,434498787E0;-2,252244234E0
1,040939519E2;7,423133850E0;-1,124985600E1;-2,606382132E0
1,041939519E2;7,633104324E0;-9,854840279E0;-2,652443886E0
1,042939519E2;5,839085579E0;-9,450452805E0;-2,149353027E0
1,043939519E2;5,333003521E0;-9,677172661E0;-2,546561480E0
1,044939519E2;6,049055576E0;-7,031907558E0;-2,322234392E0
1,045939519E2;6,614958286E0;-6,784848690E0;-1,764706731E0
1,046939519E2;2,809772015E0;-2,221137524E0;-2,094317913E0
1,047939519E2;6,471987247E0;-4,265206337E0;-2,444866419E0
1,048939519E2;7,158727169E0;-9,560523033E0;-2,022533417E0
1,049939519E2;7,646862984E0;-1,037228775E1;-3,023929596E0
1,050939519E2;6,805785656E0;-8,742177963E0;-1,948355794E0
1,051939519E2;4,919643402E0;-9,275178909E0;-1,936989903E0
1,052939519E2;6,629314899E0;-7,840083599E0;-2,132603168E0
1,053939519E2;6,849454880E0;-7,182057381E0;-2,157727718E0
1,054939519E2;1,993819475E0;-2,440080881E0;-1,585245013E0
1,055939519E2;5,305486202E0;-3,523431301E0;-2,575275421E0
1,056939519E2;6,878168583E0;-1,017966557E1;-1,911267042E0
1,057939519E2;7,834101200E0;-1,037886810E1;-2,709273338E0
1,058939519E2;6,723233223E0;-8,998807907E0;-2,867199659E0
1,059939519E2;4,580460548E0;-9,064012527E0;-2,240280151E0
1,060939519E2;7,018148899E0;-8,428717613E0;-2,270788670E0
1,061939519E2;3,949353695E0;-4,776672363E0;-1,571486235E0
1,062939519E2;1,512862086E0;-2,036890268E0;-1,548156261E0
1,063939519E2;6,267400742E0;-5,769693375E0;-2,332403898E0
1,064939519E2;6,254838467E0;-9,323633194E0;-2,700300455E0
1,065939519E2;7,297510624E0;-1,052363396E1;-2,927020311E0
1,066939519E2;7,747959614E0;-9,876375198E0;-2,409572363E0
1,067939519E2;6,939185619E0;-9,530014038E0;-2,660220623E0
1,068939519E2;7,460222721E0;-8,602795601E0;-2,380858421E0
1,069939519E2;5,674578667E0;-6,007779598E0;-2,148156643E0
1,070939519E2;1,862812400E0;-2,410768747E0;-1,539781332E0
1,071939519E2;5,973083496E0;-4,378267288E0;-1,915454507E0
1,072939519E2;6,323033810E0;-1,007258701E1;-2,702095032E0
1,073939519E2;6,486942291E0;-1,063430214E1;-2,951546669E0
1,074939519E2;6,793223381E0;-9,806983948E0;-2,621337175E0
1,075939519E2;5,774479389E0;-9,375079155E0;-2,049452543E0
1,076939519E2;8,070392609E0;-9,533005714E0;-2,288136721E0
1,077939519E2;5,713462353E0;-6,637690067E0;-2,081755638E0
1,078939519E2;2,714059114E0;-2,973680258E0;-1,962114573E0
1,079939519E2;5,673382282E0;-4,388436794E0;-2,745764017E0
1,080939519E2;6,222535133E0;-7,922635555E0;-2,008176327E0
1,081939519E2;8,054241180E0;-1,064746284E1;-2,407777786E0
1,082939519E2;7,087540627E0;-9,725028992E0;-2,557927370E0
1,083939519E2;4,639683247E0;-9,192625999E0;-1,762313843E0
1,084939519E2;8,161319733E0;-9,699306488E0;-2,090728760E0
1,085939519E2;6,473781586E0;-6,763911247E0;-2,224128723E0
1,086939519E2;1,424925923E0;-1,958525300E0;-1,413560033E0
1,087939519E2;5,298905849E0;-3,580260992E0;-2,614158630E0
1,088939519E2;6,685546398E0;-1,090947628E1;-1,971087694E0
1,089939519E2;8,485547066E0;-1,003250694E1;-2,593221426E0
1,090939519E2;6,233303070E0;-9,211171150E0;-2,439482689E0
1,091939519E2;4,323232174E0;-9,472586632E0;-2,035095692E0
1,092939519E2;7,381259441E0;-7,789236069E0;-2,023729801E0
1,093939519E2;6,646663189E0;-6,695715904E0;-2,387438774E0
1,094939519E2;2,577668190E0;-3,056830883E0;-1,350748420E0
1,095939519E2;4,698307037E0;-2,749951363E0;-2,581855536E0
1,096939519E2;6,295516491E0;-1,020239735E1;-2,233700037E0
1,097939519E2;7,575078487E0;-1,063490009E1;-2,059023857E0
1,098939519E2;7,143173695E0;-8,872586250E0;-2,352742910E0
1,099939519E2;3,965505362E0;-9,083154678E0;-1,926820397E0
1,100939519E2;7,176074982E0;-8,491529465E0;-2,875574589E0
1,101939519E2;7,038487911E0;-7,771887779E0;-2,650649309E0
1,102939519E2;1,728814363E0;-2,840280533E0;-1,174875975E0
1,103939519E2;3,452244759E0;-2,064407825E0;-1,744367719E0
1,104939519E2;6,337988853E0;-9,790233612E0;-2,067398787E0
1,105939519E2;7,822137356E0;-1,019462109E1;-2,592025042E0
1,106939519E2;7,252047062E0;-9,675976753E0;-2,149353027E0
1,107939519E2;6,147161484E0;-9,367302895E0;-2,058425665E0
1,108939519E2;8,630910873E0;-9,780064583E0;-2,738585472E0
1,109939519E2;6,623332977E0;-7,414160728E0;-2,251047850E0
1,110939519E2;2,236690998E0;-2,323430777E0;-1,506880045E0
1,111939519E2;5,708078384E0;-5,742774487E0;-2,309073925E0
1,112939519E2;6,649653912E0;-9,649655342E0;-2,260020971E0
1,113939519E2;8,124231339E0;-9,741779327E0;-3,000001431E0
1,114939519E2;7,841877937E0;-9,765707016E0;-2,569293261E0
1,115939519E2;6,225526333E0;-9,509077072E0;-2,268994093E0
1,116939519E2;8,920442581E0;-9,484550476E0;-2,292324066E0
1,117939519E2;5,333003521E0;-4,871787071E0;-1,485344648E0
1,118939519E2;1,853839397E0;-2,349153519E0;-1,534397483E0
1,119939519E2;5,770291805E0;-5,771488190E0;-2,085345030E0
1,120939519E2;6,432505608E0;-1,024786091E1;-2,146960020E0
1,121939519E2;7,322037220E0;-9,667003632E0;-3,269792080E0
1,122939519E2;7,467999458E0;-9,365508080E0;-2,767299414E0
1,123939519E2;6,634100914E0;-9,830911636E0;-2,170290232E0
1,124939519E2;8,122436523E0;-9,029914856E0;-2,313261271E0
1,125939519E2;4,478167534E0;-4,748556614E0;-1,164108157E0
1,126939519E2;2,644068956E0;-2,463410854E0;-1,742573142E0
1,127939519E2;5,879165173E0;-5,791228771E0;-2,349153519E0
1,128939519E2;6,569494724E0;-1,077966595E1;-2,421536446E0
1,129939519E2;7,211967468E0;-8,369495392E0;-2,278565407E0
1,130939519E2;7,846663475E0;-1,055832958E1;-2,568096876E0
1,131939519E2;5,473581791E0;-8,666205406E0;-1,566102386E0
1,132939519E2;9,261420250E0;-9,587442398E0;-1,676172256E0
1,133939519E2;2,670988321E0;-3,905684710E0;-1,685743570E0
1,134939519E2;4,820341110E0;-3,587439299E0;-2,496312141E0
1,135939519E2;5,682355404E0;-7,183851719E0;-1,884945989E0
1,136939519E2;7,773084164E0;-9,818947792E0;-2,745165825E0
1,137939519E2;7,604988575E0;-1,001515961E1;-3,297907829E0
1,138939519E2;4,307080746E0;-8,910871506E0;-1,982453585E0
1,139939519E2;7,622934818E0;-1,010488987E1;-1,558325768E0
1,140939519E2;6,784848690E0;-6,541976929E0;-2,520838737E0
1,141939519E2;2,086541414E0;-2,976073265E0;-9,188438654E-1
1,142939519E2;5,867799282E0;-3,477967739E0;-2,215753794E0
1,143939519E2;5,560919762E0;-7,877171993E0;-1,568495274E0
1,144939519E2;7,904689789E0;-1,098485088E1;-2,452643156E0
1,145939519E2;7,660621643E0;-1,053978539E1;-2,806182861E0
1,146939519E2;4,302295208E0;-9,094520569E0;-2,276770830E0
1,147939519E2;7,798807144E0;-9,762118340E0;-1,878963947E0
1,148939519E2;6,669394970E0;-6,947560310E0;-1,957927108E0
1,149939519E2;2,244467735E0;-2,867797852E0;-1,673181176E0
1,150939519E2;4,920241356E0;-3,506681681E0;-1,877169371E0
1,151939519E2;6,290132523E0;-8,580063820E0;-1,327418327E0
1,152939519E2;8,212765694E0;-1,049372387E1;-2,411965132E0
1,153939519E2;6,127420425E0;-9,406784058E0;-2,296511650E0
1,154939519E2;4,728815556E0;-9,527621269E0;-2,132004976E0
1,155939519E2;8,420342445E0;-9,252447128E0;-1,926820397E0
1,156939519E2;6,814758778E0;-6,037689686E0;-2,457428932E0
1,157939519E2;2,044667006E0;-3,588037491E0;-9,212366939E-1
1,158939519E2;5,235496044E0;-4,458426952E0;-2,223530531E0
1,159939519E2;8,478966713E0;-1,082512951E1;-2,039283037E0
1,160939519E2;8,673981667E0;-8,934800148E0;-2,248056889E0
1,161939519E2;6,851249218E0;-9,769296646E0;-1,889731646E0
1,162939519E2;3,693919897E0;-8,244470596E0;-1,599601984E0
1,163939519E2;7,226922512E0;-7,886743546E0;-1,820339799E0
1,164939519E2;5,908477306E0;-6,274579048E0;-1,374078393E0
1,165939519E2;2,242672920E0;-2,078764677E0;-1,572084427E0
1,166939519E2;5,105685234E0;-4,822135925E0;-2,273181438E0
1,167939519E2;8,202595711E0;-1,089691448E1;-2,356930256E0
1,168939519E2;8,648857117E0;-1,025683403E1;-2,653640270E0
1,169939519E2;5,495117188E0;-8,601000786E0;-1,992024899E0
1,170939519E2;5,846263885E0;-9,463613510E0;-2,085943222E0
1,171939519E2;6,739983082E0;-7,747959614E0;-1,782652855E0
1,172939519E2;4,679762840E0;-5,030311584E0;-1,013958573E0
1,173939519E2;2,301895380E0;-1,596012712E0;-1,640279889E0
1,174939519E2;5,470590591E0;-5,404788017E0;-1,942373753E0
1,175939519E2;8,394619942E0;-1,063609695E1;-2,821137905E0
1,176939519E2;8,014161110E0;-1,067198944E1;-3,718446493E0
1,177939519E2;4,782654285E0;-8,709276199E0;-1,686939955E0
1,178939519E2;6,466004848E0;-9,885348320E0;-2,146960020E0
1,179939519E2;5,931209087E0;-7,080960274E0;-1,789233088E0
1,180939519E2;3,760320902E0;-4,356133461E0;-1,243071318E0
1,181939519E2;3,235096216E0;-2,184647083E0;-1,988435626E0
1,182939519E2;5,931807518E0;-6,571289062E0;-2,014158487E0
1,183939519E2;8,663214684E0;-1,074437141E1;-3,141776085E0
1,184939519E2;6,564708710E0;-8,634500504E0;-2,554338217E0
1,185939519E2;5,088337421E0;-9,122037888E0;-1,688136339E0
1,186939519E2;7,109076023E0;-7,770093441E0;-2,379063845E0
1,187939519E2;6,142375946E0;-7,372286797E0;-2,334796667E0
1,188939519E2;1,185045362E0;-2,406581402E0;-1,472782373E0
1,189939519E2;4,369892120E0;-2,741576433E0;-1,671386600E0
1,190939519E2;7,287939548E0;-1,200060368E1;-2,310270309E0
1,191939519E2;9,661021233E0;-1,065763187E1;-3,106482029E0
1,192939519E2;6,323632240E0;-8,438887596E0;-2,134995937E0
1,193939519E2;5,076971531E0;-9,170493126E0;-1,784447432E0
1,194939519E2;6,560521603E0;-7,644470215E0;-1,566102386E0
1,195939519E2;5,267798901E0;-5,254040241E0;-1,328614831E0
1,196939519E2;2,587239504E0;-2,359323025E0;-1,459621787E0
1,197939519E2;5,326423168E0;-4,321437836E0;-2,194816589E0
1,198939519E2;7,945965767E0;-1,039621639E1;-2,374876499E0
1,199939519E2;8,476573944E0;-1,029332447E1;-3,145365477E0
1,200939519E2;5,229514122E0;-9,175876617E0;-1,629512191E0
1,201939519E2;6,464210510E0;-9,604191780E0;-1,707278967E0
1,202939519E2;7,547560692E0;-7,645666599E0;-2,142174482E0
1,203939519E2;3,698107481E0;-4,590032101E0;-1,155733347E0
1,204939519E2;4,023531437E0;-3,090928555E0;-1,983649969E0
1,205939519E2;5,628517151E0;-7,278966427E0;-1,639083505E0
1,206939519E2;8,502895355E0;-9,943374634E0;-2,529811859E0
1,207939519E2;7,508079052E0;-1,011505985E1;-3,114856958E0
1,208939519E2;4,533202648E0;-9,656235695E0;-2,006979942E0
1,209939519E2;6,887141705E0;-8,836693764E0;-2,283350945E0
1,210939519E2;5,715256691E0;-6,060421467E0;-2,045863390E0
1,211939519E2;2,145165443E0;-2,155334949E0;-1,400997639E0
1,212939519E2;4,807180882E0;-3,817748547E0;-1,810170293E0
1,213939519E2;8,410771370E0;-1,093938732E1;-2,351546526E0
1,214939519E2;8,048258781E0;-1,041356373E1;-2,626122952E0
1,215939519E2;6,044270039E0;-8,707481384E0;-1,853839397E0
1,216939519E2;5,252245903E0;-9,760323524E0;-2,166102648E0
1,217939519E2;6,979863644E0;-7,328019142E0;-2,136790514E0
1,218939519E2;5,319842815E0;-5,637490273E0;-1,161117196E0
1,219939519E2;2,929413080E0;-2,225923300E0;-1,073180914E0
1,220939519E2;5,504090309E0;-5,024927616E0;-1,861017823E0
1,221939519E2;8,024929047E0;-1,071027374E1;-2,447857618E0
1,222939519E2;7,925626755E0;-1,001874828E1;-3,002992392E0
1,223939519E2;5,720640659E0;-9,292527199E0;-2,327618122E0
1,224939519E2;6,822535515E0;-9,940383911E0;-2,069791555E0
1,225939519E2;6,726822853E0;-6,691528320E0;-1,963310957E0
1,226939519E2;3,549154282E0;-4,453640938E0;-9,613165259E-1
1,227939519E2;3,763910055E0;-2,600998163E0;-2,066800594E0
1,228939519E2;6,500700951E0;-6,875177860E0;-1,725225091E0
1,229939519E2;8,885149002E0;-1,052004433E1;-2,586641312E0
1,230939519E2;7,443472862E0;-9,513264656E0;-2,895315409E0
1,231939519E2;4,648057938E0;-8,595019341E0;-2,120639086E0
1,232939519E2;8,029116631E0;-1,038963604E1;-2,206780672E0
1,233939519E2;6,287739754E0;-6,730412006E0;-2,081755638E0
1,234939519E2;1,570289850E0;-2,074577332E0;-1,822134495E0
1,235939519E2;4,652843475E0;-3,594019651E0;-1,767697692E0
1,236939519E2;7,866404533E0;-1,124746323E1;-1,956132531E0
1,237939519E2;9,172286987E0;-1,031067276E1;-3,159124136E0
1,238939519E2;6,543173313E0;-8,140980721E0;-2,424527645E0
1,239939519E2;5,467001438E0;-9,846465111E0;-2,163709879E0
1,240939519E2;6,762714863E0;-7,890332699E0;-2,062613010E0
1,241939519E2;5,418546677E0;-5,855835438E0;-1,424925923E0
1,242939519E2;1,488933921E0;-2,220539331E0;-1,310070395E0
1,243939519E2;6,185446739E0;-8,810373306E0;-1,928016901E0
1,244939519E2;8,173283577E0;-1,122891808E1;-2,430509567E0
1,245939519E2;7,082755089E0;-9,778867722E0;-2,917448997E0
1,246939519E2;5,336592674E0;-7,609774113E0;-1,498505235E0
1,247939519E2;8,574081421E0;-9,866804123E0;-1,644467354E0
1,248939519E2;6,890730858E0;-7,902296543E0;-2,241476536E0
1,249939519E2;5,206781864E0;-5,513661385E0;-1,640279889E0
1,250939519E2;3,037090063E0;-2,334796667E0;-1,695913076E0
1,251939519E2;6,153143406E0;-5,063212872E0;-2,499901533E0
1,252939519E2;6,879963398E0;-7,286144733E0;-1,999801517E0
1,253939519E2;7,500900745E0;-1,016829967E1;-2,734996319E0
1,254939519E2;5,931209087E0;-9,461818695E0;-3,480360508E0
1,255939519E2;5,245067120E0;-9,232108116E0;-1,989632010E0
1,256939519E2;6,084948063E0;-8,931808472E0;-1,410568953E0
1,257939519E2;7,667201996E0;-8,539983749E0;-2,065006018E0
1,258939519E2;3,113062143E0;-3,781257868E0;-2,094317913E0
1,259939519E2;1,769492388E0;-2,230110645E0;-1,442872047E0
1,260939519E2;6,981658459E0;-6,511468410E0;-2,318645239E0
1,261939519E2;6,458228111E0;-9,909874916E0;-2,142174482E0
1,262939519E2;7,012166977E0;-9,696913719E0;-2,883351326E0
1,263939519E2;6,827919483E0;-9,672387123E0;-2,303091764E0
1,264939519E2;4,882554531E0;-9,452845573E0;-1,875972986E0
1,265939519E2;7,570292473E0;-9,124430656E0;-1,990828395E0
1,266939519E2;7,485945702E0;-7,255038261E0;-2,168495417E0
1,267939519E2;4,875376225E0;-4,833501816E0;-1,677368641E0
1,268939519E2;4,070191383E0;-2,541177750E0;-2,174477577E0
1,269939519E2;5,986244202E0;-4,987838745E0;-2,205584288E0
1,270939519E2;6,611967087E0;-8,433503151E0;-1,757528186E0
1,271939519E2;7,379465103E0;-1,019162941E1;-2,170290232E0
1,272939519E2;6,061617851E0;-9,144769669E0;-1,905883193E0
1,273939519E2;4,869992256E0;-8,817551613E0;-1,769492388E0
1,274939519E2;7,138388157E0;-8,159524918E0;-2,433500528E0
1,275939519E2;7,882555962E0;-8,163114548E0;-2,561516523E0
1,276939519E2;2,814557552E0;-3,084348440E0;-1,677368641E0
1,277939519E2;3,381058455E0;-2,477767944E0;-2,023131609E0
1,278939519E2;6,811169624E0;-7,138388157E0;-1,944766641E0
1,279939519E2;7,012166977E0;-9,776474953E0;-1,853241086E0
1,280939519E2;7,048657417E0;-8,991629601E0;-2,925823927E0
1,281939519E2;7,158128738E0;-9,034101486E0;-1,867598057E0
1,282939519E2;6,288936138E0;-8,949156761E0;-1,762313843E0
1,283939519E2;8,380861282E0;-8,836693764E0;-2,222932339E0
1,284939519E2;5,862415314E0;-5,875576019E0;-1,627119422E0
1,285939519E2;3,126821041E0;-2,846262455E0;-2,032104731E0
1,286939519E2;4,571487427E0;-3,413361549E0;-2,203789711E0
1,287939519E2;6,722036839E0;-9,520442963E0;-1,901097536E0
1,288939519E2;6,942774773E0;-8,221140862E0;-1,971087694E0
1,289939519E2;9,062217712E0;-1,211186981E1;-2,953939438E0
1,290939519E2;4,445266247E0;-8,157132149E0;-2,728415966E0
1,291939519E2;8,906085968E0;-9,840482712E0;-2,571686029E0
1,292939519E2;7,937591076E0;-7,986643791E0;-2,070389748E0
1,293939519E2;4,667798996E0;-4,641477585E0;-1,365703583E0
1,294939519E2;2,877369165E0;-3,936193228E0;-1,859223247E0
1,295939519E2;7,948956966E0;-7,406384468E0;-2,375474691E0
1,296939519E2;5,447858810E0;-8,903095245E0;-1,849053741E0
1,297939519E2;6,982854843E0;-1,018624592E1;-2,298904419E0
1,298939519E2;7,323832035E0;-1,015813065E1;-2,229512453E0
1,299939519E2;4,790431023E0;-8,552546501E0;-1,381256819E0
1,300939519E2;7,615158081E0;-9,418747902E0;-1,875972986E0
1,301939519E2;7,154539585E0;-7,244868755E0;-1,937588096E0
1,302939519E2;5,613562107E0;-4,931607246E0;-1,430309772E0
1,303939519E2;4,194618225E0;-2,707478762E0;-1,771885157E0
1,304939519E2;5,249254704E0;-4,501497746E0;-2,211566210E0
1,305939519E2;6,873383045E0;-9,190832138E0;-1,880758643E0
1,306939519E2;7,409973621E0;-9,996016502E0;-2,102094650E0
1,307939519E2;6,946363926E0;-8,850452423E0;-2,464009047E0
1,308939519E2;6,690331936E0;-9,558130264E0;-1,813161373E0
1,309939519E2;7,368697166E0;-8,662615776E0;-2,276172638E0
1,310939519E2;7,086344242E0;-6,131608009E0;-1,913061738E0
1,311939519E2;3,294318676E0;-3,471985579E0;-1,785643935E0
1,312939519E2;6,072983742E0;-4,135395527E0;-2,695514679E0
1,313939519E2;6,406782627E0;-7,195816040E0;-1,804188251E0
1,314939519E2;7,694121361E0;-9,684949875E0;-2,423929453E0
1,315939519E2;6,815357208E0;-9,683753014E0;-3,401397467E0
1,316939519E2;5,396413326E0;-9,539586067E0;-2,438884497E0
1,317939519E2;5,995217323E0;-9,336195946E0;-1,716850281E0
1,318939519E2;7,074978352E0;-7,475177765E0;-1,439282775E0
1,319939519E2;7,398607731E0;-7,036095142E0;-2,493919373E0
1,320939519E2;2,193022013E0;-1,759322882E0;-1,634896040E0
1,321939519E2;5,099703312E0;-3,724428415E0;-2,536391973E0
1,322939519E2;6,126822472E0;-8,338987350E0;-2,160718918E0
1,323939519E2;7,129415035E0;-1,024666500E1;-1,945364833E0
1,324939519E2;7,219145775E0;-9,165707588E0;-2,401197433E0
1,325939519E2;6,686144829E0;-9,067003250E0;-2,635694027E0
1,326939519E2;7,619943619E0;-9,146564484E0;-1,568495274E0
1,327939519E2;6,859624386E0;-8,067401886E0;-1,508076429E0
1,328939519E2;4,523631096E0;-4,501497746E0;-1,727019787E0
1,329939519E2;3,364906788E0;-3,433102369E0;-1,539183140E0
1,330939519E2;6,120840549E0;-5,047659397E0;-2,551347256E0
1,331939519E2;6,581458569E0;-9,116056442E0;-1,993221283E0
1,332939519E2;7,907680511E0;-1,010847950E1;-2,547159672E0
1,333939519E2;6,242276192E0;-8,630312920E0;-2,247458696E0
1,334939519E2;4,679164886E0;-9,136395454E0;-1,783251047E0
1,335939519E2;7,688737392E0;-8,678169250E0;-1,895713687E0
1,336939519E2;6,650252342E0;-7,068996429E0;-1,758724689E0
1,337939519E2;3,371487141E0;-3,032902718E0;-1,539781332E0
1,338939519E2;4,119842529E0;-2,541775942E0;-1,655833244E0
1,339939519E2;6,419943333E0;-8,744570732E0;-1,948953986E0
1,340939519E2;7,037291527E0;-1,000139999E1;-2,047059774E0
1,341939519E2;7,118049145E0;-1,003430176E1;-2,462812662E0
1,342939519E2;6,557530403E0;-8,823533058E0;-2,042274237E0
1,343939519E2;8,497511864E0;-9,292527199E0;-1,740180254E0
1,344939519E2;7,103692055E0;-8,859425545E0;-2,027318954E0
1,345939519E2;4,819743156E0;-4,783252239E0;-1,561915040E0
1,346939519E2;2,603390932E0;-3,009572744E0;-1,432702541E0
1,347939519E2;6,016752720E0;-5,081159115E0;-2,065006018E0
1,348939519E2;6,690331936E0;-9,680164337E0;-1,801197290E0
1,349939519E2;7,738388538E0;-1,099202919E1;-2,472982168E0
1,350939519E2;7,676773071E0;-1,080598736E1;-2,397608280E0
1,351939519E2;4,251447678E0;-8,523832321E0;-2,024926186E0
1,352939519E2;8,590831757E0;-1,016770172E1;-1,907079697E0
1,353939519E2;7,428517818E0;-7,406982422E0;-2,104487419E0
1,354939519E2;5,124229908E0;-4,390231133E0;-1,431506157E0
1,355939519E2;4,122833252E0;-2,258824587E0;-1,886142492E0
1,356939519E2;6,229713917E0;-5,662614822E0;-2,257628202E0
1,357939519E2;7,237092018E0;-1,078684425E1;-1,865205288E0
1,358939519E2;7,238288403E0;-9,318249702E0;-2,019542217E0
1,359939519E2;7,108478069E0;-8,726624489E0;-2,422732830E0
1,360939519E2;8,739784241E0;-9,681360245E0;-1,624726534E0
1,361939519E2;6,306882381E0;-8,115856171E0;-1,591825247E0
1,362939519E2;4,958526611E0;-5,254040241E0;-1,249651670E0
1,363939519E2;3,503092289E0;-2,742773056E0;-1,478166223E0
1,364939519E2;5,763113499E0;-5,204389095E0;-1,841277003E0
1,365939519E2;6,634100914E0;-8,162516594E0;-2,109871387E0
1,366939519E2;7,442874908E0;-1,006540871E1;-2,436491728E0
1,367939519E2;6,782455921E0;-9,010173798E0;-2,182254314E0
1,368939519E2;5,158327579E0;-9,792626381E0;-2,075773716E0
1,369939519E2;7,795217991E0;-9,260822296E0;-1,758126378E0
1,370939519E2;7,061817646E0;-7,441678524E0;-1,743171334E0
1,371939519E2;4,764708042E0;-4,608576298E0;-1,253240824E0
1,372939519E2;3,473181963E0;-2,038684845E0;-1,785643935E0
1,373939519E2;6,510272026E0;-5,961717606E0;-2,289333105E0
1,374939519E2;7,096513748E0;-9,616155624E0;-1,831705689E0
1,375939519E2;7,599604607E0;-1,000439167E1;-2,386242390E0
1,376939519E2;6,260222435E0;-9,324830055E0;-2,447857618E0
1,377939519E2;5,922834396E0;-8,970691681E0;-2,243869543E0
1,378939519E2;9,503693581E0;-1,382513142E1;-2,318047047E0
1,379939519E2;6,503692150E0;-6,080162525E0;-1,319641709E0
1,380939519E2;8,698508263E0;-6,473781586E0;-3,491128206E0
1,381939519E2;3,762115479E0;-5,008177757E0;-1,456032634E0
1,382939519E2;4,953142643E0;-7,766504288E0;-1,667797327E0
1,383939519E2;7,362117290E0;-9,396614075E0;-2,248655081E0
1,384939519E2;5,931807518E0;-8,606385231E0;-1,765304923E0
1,385939519E2;4,594219685E0;-1,011027431E1;-1,675574064E0
1,386939519E2;9,554540634E0;-8,730213165E0;-2,294118643E0
1,387939519E2;8,368298531E0;-2,774477959E0;-1,846660852E0
1,388939519E2;4,714458942E0;-5,393422127E0;-2,362912416E0
1,389939519E2;5,905486107E0;-4,924428940E0;-2,435893536E0
1,390939519E2;5,923432350E0;-6,872784615E0;-2,082353830E0
1,391939519E2;8,220541954E0;-1,018983555E1;-2,150549412E0
1,392939519E2;7,128817081E0;-9,696913719E0;-2,299502611E0
1,393939519E2;4,541577339E0;-8,589036942E0;-1,734796405E0
1,394939519E2;8,214560509E0;-9,979267120E0;-1,941775560E0
1,395939519E2;5,386841774E0;-6,710670948E0;-1,454237938E0
1,396939519E2;4,435695171E0;-4,196412563E0;-1,458425403E0
1,397939519E2;4,613361835E0;-2,821736097E0;-2,252842426E0
1,398939519E2;5,335396290E0;-5,408975601E0;-2,271985054E0
1,399939519E2;6,862017155E0;-1,005763149E1;-1,849053741E0
1,400939519E2;8,069195747E0;-1,048355389E1;-2,687737942E0
1,401939519E2;6,524629116E0;-9,020342827E0;-2,252244234E0
1,402939519E2;4,881956577E0;-9,333204269E0;-2,133799553E0
1,403939519E2;7,978867054E0;-8,069195747E0;-1,728216171E0
1,404939519E2;5,816951752E0;-6,458228111E0;-2,291127682E0
1,405939519E2;2,419143677E0;-2,086541414E0;-1,035493970E0
1,406939519E2;5,191228867E0;-2,994617462E0;-1,956132531E0
1,407939519E2;5,739185333E0;-9,047262192E0;-1,694716692E0
1,408939519E2;8,009375572E0;-1,042732334E1;-3,123231649E0
1,409939519E2;6,529414654E0;-8,807980537E0;-2,050050735E0
1,410939519E2;6,457031727E0;-9,816555023E0;-2,098505497E0
1,411939519E2;8,148757935E0;-8,550153732E0;-2,569293261E0
1,412939519E2;6,638288021E0;-6,712465763E0;-1,733001828E0
1,413939519E2;1,858026743E0;-1,776670814E0;-1,009172916E0
1,414939519E2;5,766702652E0;-4,192823410E0;-2,512463808E0
1,415939519E2;6,424130440E0;-7,880761147E0;-1,930409670E0
1,416939519E2;7,511070251E0;-1,079103184E1;-2,848057270E0
1,417939519E2;6,907480717E0;-9,519845009E0;-2,699702263E0
1,418939519E2;5,139184952E0;-8,971290588E0;-1,940579176E0
1,419939519E2;6,851847649E0;-9,419346809E0;-1,910070658E0
1,420939519E2;7,056434155E0;-7,056434155E0;-2,120639086E0
1,421939519E2;6,306283951E0;-7,060621262E0;-1,671984792E0
1,422939519E2;1,901695848E0;-1,263410330E0;-1,424327731E0
1,423939519E2;7,454240799E0;-4,708476543E0;-2,419143677E0
1,424939519E2;6,626922131E0;-8,605786324E0;-1,336989641E0
1,425939519E2;6,887141705E0;-7,606184959E0;-2,584248543E0
1,426939519E2;6,454638958E0;-1,016112137E1;-3,495315790E0
1,427939519E2;5,313262463E0;-8,610571861E0;-1,472782373E0
1,428939519E2;6,437889099E0;-8,143971443E0;-1,930409670E0
1,429939519E2;7,493124008E0;-7,408777237E0;-2,550748825E0
1,430939519E2;3,223730326E0;-2,750549555E0;-1,192822099E0
1,431939519E2;3,843471289E0;-2,596212626E0;-1,390828133E0
1,432939519E2;6,205785751E0;-9,087342262E0;-2,021935225E0
1,433939519E2;7,163512707E0;-9,751350403E0;-2,179263115E0
1,434939519E2;7,170691490E0;-9,223732948E0;-2,211566210E0
1,435939519E2;6,117250919E0;-1,051944637E1;-2,249253273E0
1,436939519E2;7,467401028E0;-7,505686283E0;-1,424925923E0
1,437939519E2;7,820342541E0;-8,552546501E0;-2,317448616E0
1,438939519E2;1,798804402E0;-1,893320918E0;-4,660021961E-1
1,439939519E2;4,242474556E0;-2,539382935E0;-2,093719721E0
1,440939519E2;6,114858150E0;-5,397011280E0;-2,240878344E0
1,441939519E2;7,369295597E0;-1,014437199E1;-2,392822742E0
1,442939519E2;7,159923553E0;-1,001156998E1;-3,269193888E0
1,443939519E2;5,859424591E0;-9,007781029E0;-2,279163599E0
1,444939519E2;5,877370834E0;-9,373882294E0;-1,767099500E0
1,445939519E2;7,144370079E0;-7,704888821E0;-1,764108539E0
1,446939519E2;6,610172749E0;-6,719046116E0;-2,132603168E0
1,447939519E2;2,733201742E0;-2,099701881E0;-1,602592945E0
1,448939519E2;5,230112076E0;-3,350549936E0;-2,621337175E0
1,449939519E2;6,717251301E0;-9,528220177E0;-2,001596212E0
1,450939519E2;7,472187042E0;-1,017906761E1;-2,243869543E0
1,451939519E2;6,844669342E0;-8,769695282E0;-1,651645780E0
1,452939519E2;5,139184952E0;-8,825327873E0;-1,643270969E0
1,453939519E2;7,542775154E0;-9,366106033E0;-2,525026083E0
1,454939519E2;7,275975227E0;-7,542775154E0;-1,762912035E0
1,455939519E2;3,498306751E0;-3,704089403E0;-1,624726534E0
1,456939519E2;2,385644197E0;-2,374876499E0;-1,124028444E0
1,457939519E2;6,896114826E0;-8,076375008E0;-2,305484533E0
1,458939519E2;7,590631485E0;-1,032502937E1;-2,169692039E0
1,459939519E2;6,738786697E0;-9,461220741E0;-2,882154942E0
1,460939519E2;5,412564754E0;-9,991828918E0;-2,108675003E0
1,461939519E2;6,568896294E0;-9,195018768E0;-1,929811478E0
1,462939519E2;6,880561352E0;-7,226324558E0;-1,859223247E0
1,463939519E2;6,540780544E0;-6,311667919E0;-2,016551256E0
1,464939519E2;3,583251953E0;-2,508874655E0;-1,738983870E0
1,465939519E2;5,793023586E0;-3,769891977E0;-2,279163599E0
1,466939519E2;7,069594383E0;-9,564111710E0;-1,800599098E0
1,467939519E2;7,247859955E0;-1,087896824E1;-2,398804665E0
1,468939519E2;6,637091637E0;-9,031708717E0;-1,606182218E0
1,469939519E2;5,274977684E0;-9,748359680E0;-2,018345833E0
1,470939519E2;8,340781212E0;-8,660223007E0;-2,536990166E0
1,471939519E2;6,725626469E0;-7,992027760E0;-2,265404940E0
1,472939519E2;3,467200041E0;-3,399004459E0;-1,765903115E0
1,473939519E2;2,499901533E0;-2,276172638E0;-2,158325911E0
1,474939519E2;6,807580471E0;-8,401798248E0;-1,810170293E0
1,475939519E2;6,945167542E0;-1,143290615E1;-2,017747641E0
1,476939519E2;7,167101860E0;-9,584450722E0;-1,365703583E0
1,477939519E2;7,296314240E0;-1,088195896E1;-2,574079037E0
1,478939519E2;5,079364300E0;-6,754340172E0;-2,084148407E0
1,479939519E2;8,783453941E0;-9,632905960E0;-1,930409670E0
1,480939519E2;5,213362217E0;-5,115256786E0;-1,729412556E0
1,481939519E2;3,552743435E0;-2,918047190E0;-1,588834286E0
1,482939519E2;5,728417397E0;-4,686343193E0;-2,272583246E0
1,483939519E2;6,988238335E0;-1,016112137E1;-2,148754835E0
1,484939519E2;7,841877937E0;-1,041655540E1;-2,319243431E0
1,485939519E2;6,175277233E0;-8,696713448E0;-2,094916344E0
1,486939519E2;5,953342915E0;-8,234899521E0;-2,535195589E0
1,487939519E2;8,061419487E0;-9,145368576E0;-2,107478619E0
1,488939519E2;5,369493961E0;-7,212565422E0;-1,642074585E0
1,489939519E2;3,904488325E0;-3,420539856E0;-1,428515077E0
1,490939519E2;5,273182869E0;-2,932404041E0;-1,868196249E0
1,491939519E2;6,965506554E0;-8,801400185E0;-1,492523074E0
1,492939519E2;6,433103561E0;-7,604390144E0;-2,580659151E0
1,493939519E2;8,606385231E0;-1,026102161E1;-1,721037745E0
1,494939519E2;5,051248550E0;-7,795217991E0;-1,211366415E0
1,495939519E2;7,922037601E0;-1,014018440E1;-1,968096614E0
1,496939519E2;6,504290104E0;-7,560721397E0;-6,777670383E-1
1,497939519E2;4,040879250E0;-3,349951744E0;-1,515254974E0
1,498939519E2;3,444468260E0;-1,872383714E0;-1,418345571E0
1,499939519E2;5,824130535E0;-5,761318684E0;-1,891526341E0
1,500939519E2;7,664809227E0;-8,534600258E0;-1,384846091E0
1,501939519E2;7,308876991E0;-9,964311600E0;-2,678765059E0
1,502939519E2;6,595815659E0;-9,456435204E0;-1,800000787E0
1,503939519E2;5,205585480E0;-9,073583603E0;-1,896910191E0
1,504939519E2;8,752346992E0;-9,490532875E0;-2,018345833E0
1,505939519E2;6,152545452E0;-6,923632145E0;-2,340778828E0
1,506939519E2;4,196412563E0;-4,837090969E0;-1,409372568E0
1,507939519E2;5,098506927E0;-3,081955671E0;-2,158325911E0
1,508939519E2;6,023931026E0;-8,481359482E0;-1,890329838E0
1,509939519E2;7,484749317E0;-1,042492962E1;-1,913659930E0
1,510939519E2;7,378268719E0;-9,917053223E0;-2,252842426E0
1,511939519E2;5,666802406E0;-8,861220360E0;-1,868794441E0
1,512939519E2;7,910671711E0;-9,038887978E0;-1,686939955E0
1,513939519E2;6,533602238E0;-7,521838188E0;-1,460818172E0
1,514939519E2;3,598805189E0;-4,760520458E0;-1,297508121E0
1,515939519E2;2,760120869E0;-2,572882652E0;-1,795813441E0
1,516939519E2;5,630909920E0;-4,819743156E0;-1,977069736E0
1,517939519E2;6,837490559E0;-8,708678246E0;-1,907677889E0
1,518939519E2;7,313064098E0;-9,462417603E0;-2,464607239E0
1,519939519E2;7,138388157E0;-9,604789734E0;-1,991426587E0
1,520939519E2;5,209175110E0;-9,367302895E0;-1,423729420E0
1,521939519E2;7,940581799E0;-9,491728783E0;-1,454836130E0
1,522939519E2;7,647460938E0;-7,544569969E0;-2,240280151E0
1,523939519E2;4,015754700E0;-4,058825493E0;-1,336989641E0
1,524939519E2;4,272384644E0;-3,202793121E0;-2,190629244E0
1,525939519E2;5,956932068E0;-5,389832973E0;-1,792224169E0
1,526939519E2;6,952346325E0;-1,027597713E1;-1,774278045E0
1,527939519E2;7,521838188E0;-9,871589661E0;-2,613560438E0
1,528939519E2;6,309873104E0;-8,860024452E0;-2,177468538E0
1,529939519E2;4,546362877E0;-9,027522087E0;-1,430309772E0
1,530939519E2;6,887740135E0;-8,366504669E0;-1,785643935E0
1,531939519E2;7,660621643E0;-7,085746288E0;-2,064407825E0
1,532939519E2;3,580859184E0;-3,036491871E0;-1,434497118E0
1,533939519E2;5,924030781E0;-4,635495663E0;-2,148754835E0
1,534939519E2;6,462415695E0;-8,107481003E0;-1,759921074E0
1,535939519E2;7,645666599E0;-1,044407272E1;-2,149951220E0
1,536939519E2;6,669992924E0;-9,719645500E0;-2,330609322E0
1,537939519E2;5,470590591E0;-8,899505615E0;-2,148156643E0
1,538939519E2;8,447860718E0;-9,703494072E0;-1,884347796E0
1,539939519E2;6,608377934E0;-6,848856449E0;-1,841277003E0
1,540939519E2;5,909673691E0;-5,057828903E0;-1,654038668E0
1,541939519E2;3,495913982E0;-2,123630047E0;-1,200598717E0
1,542939519E2;6,181259155E0;-5,236093998E0;-2,256431818E0
1,543939519E2;7,009773731E0;-9,704092026E0;-2,127817631E0
1,544939519E2;7,332206726E0;-1,010847950E1;-2,257628202E0
1,545939519E2;6,657430649E0;-8,840881348E0;-2,162513494E0
1,546939519E2;4,573282242E0;-8,925228119E0;-1,791027784E0
1,547939519E2;6,427719593E0;-8,079365730E0;-1,653440475E0
1,548939519E2;7,850851059E0;-7,951947689E0;-2,048854351E0
1,549939519E2;2,426322222E0;-2,824128866E0;-1,439282775E0
1,550939519E2;3,092723370E0;-2,291725874E0;-1,361516118E0
1,551939519E2;6,251847267E0;-9,099904060E0;-2,189432621E0
1,552939519E2;7,505088329E0;-8,859425545E0;-1,644467354E0
1,553939519E2;6,911668301E0;-9,954740524E0;-1,834098577E0
1,554939519E2;7,581658363E0;-8,822337151E0;-2,490330219E0
1,555939519E2;9,324232101E0;-1,121635628E1;-1,960319996E0
1,556939519E2;6,866204739E0;-7,433303356E0;-1,883151412E0
1,557939519E2;1,760519266E0;-1,442872047E0;-1,507478237E0
1,558939519E2;5,449055195E0;-5,557330608E0;-1,291526079E0
1,559939519E2;6,671787739E0;-1,141436195E1;-2,112862349E0
1,560939519E2;8,224131584E0;-1,008275604E1;-2,720041037E0
1,561939519E2;1,015394306E1;-9,482755661E0;-1,262812138E0
1,562939519E2;6,897311211E0;-8,871390343E0;1,962114573E-1
1,563939519E2;8,342576027E0;-7,286144733E0;-2,858226538E0
1,564939519E2;2,895315409E0;-3,595216036E0;-1,718046665E0
1,565939519E2;4,393222332E0;-2,316850424E0;-1,367498159E0
1,566939519E2;7,505088329E0;-8,606983185E0;-2,596810818E0
1,567939519E2;8,011170387E0;-1,185942745E1;-1,690529227E0
1,568939519E2;7,621738434E0;-7,859225750E0;-1,985444546E0
1,569939519E2;4,011567116E0;-8,295916557E0;-2,268994093E0
1,570939519E2;8,438288689E0;-9,004789352E0;-1,841875196E0
1,571939519E2;7,298707485E0;-7,088737011E0;-1,732403636E0
1,572939519E2;1,100698471E0;-1,331007600E0;-5,330012441E-1
1,573939519E2;5,822335720E0;-4,322634220E0;-2,190629244E0
1,574939519E2;7,254439831E0;-1,010608673E1;-1,675574064E0
1,575939519E2;8,105088234E0;-9,464810371E0;-2,809772015E0
1,576939519E2;5,528018475E0;-9,299705505E0;-2,316850424E0
1,577939519E2;7,177869797E0;-9,461818695E0;-1,677966833E0
1,578939519E2;6,364908218E0;-6,555137634E0;-2,268994093E0
1,579939519E2;4,474578381E0;-5,021338463E0;-5,006981492E-1
1,580939519E2;3,381058455E0;-2,819343328E0;-2,054836512E0
1,581939519E2;6,622735023E0;-6,754938126E0;-2,100898266E0
1,582939519E2;9,666405678E0;-1,180917835E1;-2,716451883E0
1,583939519E2;7,232904434E0;-8,913264275E0;-2,518445730E0
1,584939519E2;5,353342533E0;-9,890732765E0;-2,471785784E0
1,585939519E2;8,319844246E0;-9,519845009E0;-1,647458434E0
1,586939519E2;6,053243160E0;-6,397211552E0;-1,661815286E0
1,587939519E2;2,718246460E0;-3,214159012E0;-1,471585870E0
1,588939519E2;7,360322475E0;-5,690730572E0;-3,005983353E0
1,589939519E2;6,337988853E0;-9,176474571E0;-8,392825127E-1
1,590939519E2;8,671588898E0;-1,022453117E1;-2,782852650E0
1,591939519E2;8,352746010E0;-1,103091240E1;-2,300698996E0
1,592939519E2;5,556134224E0;-8,768498421E0;-1,889731646E0
1,593939519E2;9,253045082E0;-8,849854469E0;-2,392822742E0
1,594939519E2;4,928616524E0;-5,008776188E0;-6,257231236E-1
1,595939519E2;2,851646423E0;-2,740978241E0;-5,724828243E-1
1,596939519E2;6,427121639E0;-6,214758396E0;-2,413759947E0
1,597939519E2;8,674580574E0;-1,027178955E1;-2,294716835E0
1,598939519E2;7,644470215E0;-1,070489025E1;-3,223730326E0
1,599939519E2;4,907081127E0;-7,832306862E0;-2,154138565E0
1,600939519E2;8,516056061E0;-9,244071960E0;-1,932204247E0
1,601939519E2;6,359524250E0;-7,180262566E0;-1,801795483E0
1,602939519E2;3,727419376E0;-4,674378872E0;-1,104885817E0
1,603939519E2;4,434498787E0;-3,347558975E0;-1,997408748E0
1,604939519E2;7,225726128E0;-7,799405575E0;-2,505883455E0
1,605939519E2;7,939983845E0;-1,006361389E1;-1,715653777E0
1,606939519E2;7,610970497E0;-9,510273933E0;-2,581855536E0
1,607939519E2;4,711467743E0;-9,156734467E0;-2,328216314E0
1,608939519E2;8,006384850E0;-9,131011009E0;-1,407577872E0
1,609939519E2;6,899106026E0;-7,167101860E0;-2,200798512E0
1,610939519E2;3,093919754E0;-3,823132277E0;-1,650449395E0
1,611939519E2;5,764309883E0;-4,175475597E0;-2,170888424E0
1,612939519E2;6,833303452E0;-8,778069496E0;-1,697109461E0
1,613939519E2;8,920442581E0;-1,006002426E1;-2,475973129E0
1,614939519E2;7,002595425E0;-9,254839897E0;-2,244467735E0
1,615939519E2;5,723033428E0;-9,471988678E0;-2,408974171E0
1,616939519E2;8,599205971E0;-8,645268440E0;-1,922034740E0
1,617939519E2;5,898906231E0;-6,405586243E0;-1,110867858E0
1,618939519E2;1,530808330E0;-2,847458839E0;-1,319043517E0
1,619939519E2;6,010770321E0;-4,805984497E0;-2,257628202E0
1,620939519E2;8,794221878E0;-1,143589783E1;-1,803590059E0
1,621939519E2;7,980661869E0;-9,841081619E0;-3,271586657E0
1,622939519E2;5,014758110E0;-8,647063255E0;-2,106880426E0
1,623939519E2;7,941180229E0;-9,930811882E0;-2,196012974E0
1,624939519E2;6,638288021E0;-7,349554539E0;-9,936196208E-1
1,625939519E2;3,882354736E0;-5,053641319E0;-1,366301775E0
1,626939519E2;3,705883980E0;-3,251846075E0;-2,456830740E0
1,627939519E2;6,520441532E0;-6,891329288E0;-2,151147604E0
1,628939519E2;8,951549530E0;-1,065882874E1;-2,671586514E0
1,629939519E2;7,604390144E0;-9,355937004E0;-3,093321562E0
1,630939519E2;5,137988567E0;-9,364311218E0;-1,668993831E0
1,631939519E2;7,973483086E0;-8,370093346E0;-9,367900491E-1
1,632939519E2;7,351349354E0;-7,686344624E0;-1,995614052E0
1,633939519E2;3,834498405E0;-4,958526611E0;-1,246062398E0
1,634939519E2;5,167898655E0;-3,586841106E0;-2,641077995E0
1,635939519E2;6,145366669E0;-7,896314621E0;-1,696511269E0
1,636939519E2;9,242277145E0;-1,022213840E1;-2,675175667E0
1,637939519E2;6,059225082E0;-8,864809990E0;-2,578266382E0
1,638939519E2;5,962316036E0;-9,564710617E0;-1,895115495E0
1,639939519E2;8,980263710E0;-9,243474007E0;-1,427916884E0
1,640939519E2;6,989434719E0;-6,598208427E0;-2,129612207E0
1,641939519E2;3,640679598E0;-4,610969067E0;-1,237687469E0
1,642939519E2;5,277370453E0;-3,763311863E0;-2,651247501E0
1,643939519E2;6,614359856E0;-7,786843300E0;-1,892124534E0
1,644939519E2;8,094919205E0;-9,915258408E0;-2,483151674E0
1,645939519E2;7,410571575E0;-9,282955170E0;-1,907079697E0
1,646939519E2;5,522036552E0;-9,317052841E0;-2,364108801E0
1,647939519E2;6,579065800E0;-7,652246952E0;-1,728814363E0
1,648939519E2;6,751947403E0;-6,981060028E0;-1,988435626E0
1,649939519E2;2,753540754E0;-3,136392355E0;-1,122832060E0
1,650939519E2;4,204787731E0;-3,230310678E0;-2,626122952E0
1,651939519E2;6,827321053E0;-9,392427444E0;-1,965105653E0
1,652939519E2;7,947162151E0;-9,836296082E0;-2,216351986E0
1,653939519E2;7,487142086E0;-1,003011417E1;-1,558325768E0
1,654939519E2;5,165505886E0;-8,821739197E0;-1,497308731E0
1,655939519E2;9,202795982E0;-8,872586250E0;-2,127817631E0
1,656939519E2;6,585047722E0;-7,756932735E0;-2,020140409E0
1,657939519E2;2,605185747E0;-3,282354355E0;-1,617548108E0
1,658939519E2;2,870190859E0;-2,356930256E0;-1,519442320E0
1,659939519E2;7,097710133E0;-9,268598557E0;-2,106880426E0
1,660939519E2;7,621140003E0;-1,000319481E1;-1,954337835E0
1,661939519E2;7,727022648E0;-9,808777809E0;-2,604587555E0
1,662939519E2;6,772286415E0;-9,470791817E0;-2,249253273E0
1,663939519E2;8,675776482E0;-8,801998138E0;-1,491326690E0
1,664939519E2;7,307082176E0;-7,331010342E0;-1,475773335E0
1,665939519E2;2,447259426E0;-3,821337700E0;-1,524227977E0
1,666939519E2;2,559721947E0;-2,164308071E0;-8,410771489E-1
1,667939519E2;5,848656654E0;-7,873582840E0;-1,566700578E0
1,668939519E2;6,122036934E0;-8,065009117E0;-1,788634896E0
1,669939519E2;7,747361660E0;-9,927223206E0;-2,944966555E0
1,670939519E2;5,024329185E0;-8,435297966E0;-2,148156643E0
1,671939519E2;8,570492744E0;-1,007079220E1;-1,299900889E0
1,672939519E2;5,717051506E0;-7,147361279E0;-1,135394335E0
1,673939519E2;4,220340729E0;-4,275974274E0;-8,207381964E-1
1,674939519E2;4,747360229E0;-2,428116798E0;-1,296909928E0
1,675939519E2;7,012166977E0;-7,092326164E0;-2,122433662E0
1,676939519E2;8,327621460E0;-9,757930756E0;-1,962712765E0
1,677939519E2;7,255038261E0;-1,052064323E1;-3,160320520E0
1,678939519E2;6,121438503E0;-8,560921669E0;-1,971685886E0
1,679939519E2;6,291328907E0;-9,343374252E0;-1,808375716E0
1,680939519E2;6,549753666E0;-6,978068829E0;-1,908276081E0
1,681939519E2;6,884150982E0;-6,262016773E0;-1,880160451E0
1,682939519E2;2,242074728E0;-1,674377680E0;-1,729412556E0
1,683939519E2;5,592026711E0;-4,411766529E0;-2,523829699E0
1,684939519E2;7,136593342E0;-9,664012909E0;-1,803590059E0
1,685939519E2;7,969295979E0;-9,959526062E0;-2,602194548E0
1,686939519E2;6,411568165E0;-8,986245155E0;-2,020140409E0
1,687939519E2;4,966901779E0;-8,775078773E0;-2,075175524E0
1,688939519E2;7,436294556E0;-8,238488197E0;-2,198405743E0
1,689939519E2;7,000801086E0;-6,737590313E0;-1,603789330E0
1,690939519E2;2,947359324E0;-3,699303865E0;-1,338784218E0
1,691939519E2;4,086342812E0;-2,900100946E0;-2,396411896E0
1,692939519E2;7,188637257E0;-7,966903210E0;-1,808973908E0
1,693939519E2;6,680162430E0;-1,018505001E1;-1,659422517E0
1,694939519E2;6,622735023E0;-9,010173798E0;-2,124826431E0
1,695939519E2;5,051846981E0;-9,570692062E0;-1,903490424E0
1,696939519E2;7,913662910E0;-8,995817184E0;-2,030309916E0
1,697939519E2;6,516852379E0;-6,595815659E0;-2,505883455E0
1,698939519E2;6,558128834E0;-4,865206718E0;-1,138385415E0
1,699939519E2;4,144967079E0;-1,753340840E0;-9,720842242E-1
1,700939519E2;5,474778175E0;-4,256831646E0;-7,842476368E-1
1,701939519E2;5,644070625E0;-9,355338097E0;-2,140379906E0
1,702939519E2;7,456035137E0;-1,070608711E1;-3,428914785E0
1,703939519E2;6,874579430E0;-8,973084450E0;-2,500499725E0
1,704939519E2;5,129613400E0;-9,525228500E0;-2,370688915E0
1,705939519E2;7,463811874E0;-8,394619942E0;-1,963310957E0
1,706939519E2;6,833901405E0;-6,478567123E0;-2,335993052E0
1,707939519E2;3,364906788E0;-3,578466177E0;-1,978266120E0
1,708939519E2;4,066003799E0;-3,296113253E0;-2,297708035E0
1,709939519E2;7,275377274E0;-7,213762283E0;-2,312663078E0
1,710939519E2;6,924230576E0;-7,673183918E0;-2,185245275E0
1,711939519E2;6,427719593E0;-9,204590797E0;-3,124428272E0
1,712939519E2;7,768298626E0;-9,952945709E0;-1,938784599E0
1,713939519E2;6,178267956E0;-9,048459053E0;-1,872981906E0
1,714939519E2;8,816953659E0;-8,388039589E0;-1,725225091E0
1,715939519E2;7,775477409E0;-7,036693096E0;-1,799402595E0
1,716939519E2;7,262814999E0;-5,490331650E0;-1,660618901E0
1,717939519E2;5,036891460E0;-3,001197815E0;-2,378465652E0
1,718939519E2;7,098906517E0;-8,101499557E0;-2,428714991E0
1,719939519E2;6,375676155E0;-8,889336586E0;-1,933400750E0
1,720939519E2;6,108876228E0;-9,074779510E0;-3,275774240E0
1,721939519E2;7,804789066E0;-9,990034103E0;-1,813759565E0
1,722939519E2;7,834101200E0;-8,608179092E0;-1,816750646E0
1,723939519E2;8,049455643E0;-7,657630444E0;-2,302493572E0
1,724939519E2;6,683153629E0;-6,867401123E0;-2,164308071E0
1,725939519E2;3,838087559E0;-5,387440205E0;-2,206182480E0
1,726939519E2;5,720640659E0;-4,029513359E0;-3,217149973E0
1,727939519E2;7,733004570E0;-6,022734642E0;-2,808575630E0
1,728939519E2;6,556334019E0;-8,453244209E0;-2,309073925E0
1,729939519E2;7,603193760E0;-1,096810055E1;-2,751745939E0
1,730939519E2;4,561916351E0;-8,343772888E0;-3,242274821E-1
1,731939519E2;6,309873104E0;-8,856434822E0;-1,666600943E0
1,732939519E2;9,656833649E0;-7,149754047E0;-9,750752449E-1
1,733939519E2;5,282754421E0;-6,485745907E0;-1,153938770E0
1,734939519E2;4,723432064E0;-4,237090588E0;-2,384447813E0
1,735939519E2;5,115854740E0;-3,751347780E0;-3,125624657E0
1,736939519E2;6,254240036E0;-6,804589272E0;-1,440479279E0
1,737939519E2;7,465606689E0;-1,020239735E1;-2,085345030E0
1,738939519E2;6,981658459E0;-9,723833084E0;-3,052045345E0
1,739939519E2;7,324429989E0;-9,013762474E0;-1,446461320E0
1,740939519E2;7,794619560E0;-8,469395638E0;-9,810572863E-1
1,741939519E2;7,118049145E0;-7,976474285E0;-1,607378602E0
1,742939519E2;5,864808083E0;-5,907280922E0;-1,258026481E0
1,743939519E2;3,672982693E0;-2,624328136E0;-2,564507723E0
1,744939519E2;8,127820015E0;-6,711269379E0;-2,529811859E0
1,745939519E2;6,619743824E0;-7,544569969E0;-1,491924882E0
1,746939519E2;6,298507214E0;-9,705886841E0;-2,179861546E0
1,747939519E2;8,606385231E0;-1,031426239E1;-1,966900229E0
1,748939519E2;5,415555954E0;-9,397212982E0;-1,798206210E0
1,749939519E2;8,973683357E0;-9,300901413E0;-2,210968018E0
1,750939519E2;8,427521706E0;-8,254041672E0;-2,776870728E0
1,751939519E2;3,001796007E0;-1,124626637E0;-2,405385017E0
1,752939519E2;3,818346739E0;-3,311068296E0;-2,556730986E0
1,753939519E2;6,714858532E0;-5,198407173E0;-2,097907305E0
1,754939519E2;6,369095802E0;-8,712865829E0;-1,532004714E0
1,755939519E2;7,606783390E0;-1,197428226E1;-2,575873613E0
1,756939519E2;7,507481098E0;-1,006540871E1;-2,366501570E0
1,757939519E2;4,281956196E0;-9,086744308E0;-1,432104349E0
1,758939519E2;4,694717884E0;-9,190832138E0;-1,076770186E0
1,759939519E2;5,550152302E0;-8,382058144E0;-2,020140409E0
1,760939519E2;6,352943897E0;-7,299305439E0;-1,489532113E0
1,761939519E2;6,023931026E0;-6,214160442E0;-1,969292998E0
1,762939519E2;6,790830612E0;-6,887740135E0;-2,283949137E0
1,763939519E2;6,587440968E0;-5,316852093E0;-1,993819475E0
1,764939519E2;6,725028038E0;-6,117849350E0;-1,980060697E0
1,765939519E2;7,359126091E0;-6,979863644E0;-2,379063845E0
1,766939519E2;7,532007694E0;-6,983452797E0;-2,638087034E0
1,767939519E2;8,239086151E0;-7,159325123E0;-2,949153900E0
1,768939519E2;2,149353027E0;-1,811964989E0;-1,278963685E0
1,769939519E2;-5,108676553E-1;8,374879137E-3;-5,982056609E-4
1,770939519E2;7,696514130E0;-8,799007416E0;-1,038485050E0
1,771939519E2;7,633104324E0;-1,100578785E1;-2,447259426E0
1,772939519E2;5,950950146E0;-8,003393173E0;-2,391027927E0
1,773939519E2;6,283552170E0;-9,168100357E0;-2,504687071E0
1,774939519E2;9,493523598E0;-9,133403778E0;-1,347757339E0
1,775939519E2;6,563512325E0;-6,274579048E0;-2,714657307E0
1,776939519E2;2,264806747E0;-3,585046530E0;-9,493523836E-1
1,777939519E2;7,228717327E0;-4,399802685E0;-2,522035122E0
1,778939519E2;6,142375946E0;-8,680562019E0;-1,584646821E0
1,779939519E2;9,047262192E0;-9,765707016E0;-1,896311998E0
1,780939519E2;6,416952133E0;-9,374481201E0;-2,764308453E0
1,781939519E2;5,769095421E0;-9,626325607E0;-2,048256159E0
1,782939519E2;9,055039406E0;-8,276175499E0;-1,106082320E0
1,783939519E2;9,055039406E0;-8,276175499E0;-1,106082320E0
1,784939519E2;6,836294174E0;-6,491129398E0;-2,024926186E0
1,785939519E2;4,585246563E0;-2,893520832E0;-2,059622049E0
1,786939519E2;5,939583778E0;-9,547362328E0;-2,907279491E0
1,787939519E2;8,794819832E0;-1,055952644E1;-2,121835470E0
1,788939519E2;8,114660263E0;-8,518448830E0;-2,411965132E0
1,789939519E2;8,015955925E0;-1,000977516E1;-2,445464849E0
1,790939519E2;9,084351540E0;-8,900103569E0;-2,483749866E0
1,791939519E2;3,205185890E0;-3,138785124E0;-4,540380836E-1
1,792939519E2;3,110071182E0;-3,068794966E0;-7,070791125E-1
1,793939519E2;6,635895252E0;-6,529414654E0;-1,822732687E0
1,794939519E2;9,128020287E0;-1,179721355E1;-2,855833769E0
1,795939519E2;8,277371407E0;-9,924231529E0;-2,237289190E0
1,796939519E2;6,145965099E0;-8,292924881E0;-7,812566161E-1
1,797939519E2;7,617550850E0;-1,269093323E1;-7,298108935E-1
1,798939519E2;6,926024914E0;-6,122036934E0;-2,048256159E0
1,799939519E2;-1,427318692E0;7,746763229E-1;-2,641676188E0
1,800939519E2;2,221137524E0;1,054038405E0;9,828519225E-1
1,801939519E2;6,862615108E0;-7,101299286E0;-2,730808735E0
1,802939519E2;6,719644070E0;-1,002951622E1;-2,740978241E0
1,803939519E2;5,998806477E0;-9,037691116E0;-1,787438512E0
1,804939519E2;5,145765305E0;-8,202595711E0;-1,822134495E0
1,805939519E2;5,691926956E0;-7,189833641E0;-2,306082726E0
1,806939519E2;8,585447311E0;-1,094237804E1;-3,183052301E0
1,807939519E2;6,019145489E0;-6,144768715E0;-1,631306887E0
1,808939519E2;9,248259664E-1;-2,072184324E0;-8,638089895E-1
1,809939519E2;9,654440880E0;-5,743970871E0;-2,933002472E0
1,810939519E2;4,636094093E0;-8,123632431E0;-1,247258782E0
1,811939519E2;7,514659405E0;-1,070130062E1;-1,995614052E0
1,812939519E2;7,238288403E0;-1,066122150E1;-1,499701619E0
1,813939519E2;6,189633846E0;-9,692128181E0;-2,650649309E0
1,814939519E2;3,664607763E0;-8,083553314E0;-1,959721804E0
1,815939519E2;6,279364586E0;-7,109076023E0;-1,633699656E0
1,816939519E2;8,727222443E0;-7,271788120E0;-1,963909149E0
1,817939519E2;3,848257065E0;-2,185245275E0;-4,869394004E-1
1,818939519E2;3,848855257E0;-1,525424480E0;-9,499505758E-1
1,819939519E2;4,893920422E0;-1,085743237E1;-1,833500385E0
1,820939519E2;8,956335068E0;-1,172961617E1;-3,892524242E0
1,821939519E2;6,680760860E0;-6,202794552E0;-1,971087694E0
1,822939519E2;6,680760860E0;-6,202794552E0;-1,971087694E0
1,823939519E2;3,786043644E0;-9,952347755E0;-1,546361685E0
1,824939519E2;8,982057571E0;-7,235297680E0;-1,995015860E0
1,825939519E2;8,809176445E0;-8,971290588E0;-1,013958573E0
1,826939519E2;3,981656790E0;-1,317248821E0;-1,713859200E0
1,827939519E2;6,576074600E0;-2,559123755E0;-2,038684845E0
1,828939519E2;7,631309509E0;-5,102096081E0;-2,344367981E0
1,829939519E2;5,866004944E0;-1,141017437E1;-1,303490162E0
1,830939519E2;5,997610092E0;-9,283554077E0;-2,075175524E0
1,831939519E2;6,122036934E0;-9,229715347E0;-1,474576950E0
1,832939519E2;5,041677475E0;-9,139386177E0;-1,549352646E0
1,833939519E2;7,716853142E0;-1,034357452E1;-2,289931297E0
1,834939519E2;7,663612843E0;-7,168896675E0;-2,212762833E0
1,835939519E2;5,830112457E0;-5,515456200E0;-2,343171597E0
1,836939519E2;3,624528170E0;-1,673181176E0;-2,228914261E0
1,837939519E2;5,245665550E0;-3,203989506E0;-2,567498684E0
1,838939519E2;6,634698868E0;-8,149355888E0;-9,840483069E-1
1,839939519E2;7,802396297E0;-9,714262009E0;-1,741376638E0
1,840939519E2;7,138986588E0;-9,425926208E0;-2,615355253E0
1,841939519E2;5,096114159E0;-8,419744492E0;-1,269392371E0
1,842939519E2;5,841478348E0;-9,018548965E0;-1,829911113E0
1,843939519E2;7,309474945E0;-7,252645493E0;-1,645065546E0
1,844939519E2;7,209574699E0;-6,501897335E0;-1,880758643E0
1,845939519E2;3,182454109E0;-3,129213810E0;2,793620527E-1
1,846939519E2;5,742176056E0;-4,176671982E0;-2,717050076E0
1,847939519E2;6,014359951E0;-3,373879910E0;-8,542376757E-1
1,848939519E2;6,999006271E0;-1,066899776E1;-2,325225353E0
1,849939519E2;6,644868374E0;-1,250668621E1;-3,964907169E0
1,850939519E2;6,474380016E0;-6,976274490E0;-3,589234129E-2
1,851939519E2;5,461019516E0;-5,389235020E0;-1,700100541E0
1,852939519E2;7,851449490E0;-1,198385429E1;-2,834896564E0
1,853939519E2;6,442076683E0;-5,059025288E0;-1,342971683E0
1,854939519E2;4,950749874E0;-6,456433773E0;-1,440479279E0
1,855939519E2;5,612963676E0;-3,899702787E0;-1,482951880E0
1,856939519E2;4,140181541E0;-5,822335720E0;-2,349751949E0
1,857939519E2;6,044270039E0;-1,066301632E1;-1,437488198E0
1,858939519E2;7,396812916E0;-7,478767395E0;-1,987837434E0
1,859939519E2;6,241677761E0;-1,164586735E1;-1,296311617E0
1,860939519E2;4,723432064E0;-7,229315281E0;-1,508674622E0
1,861939519E2;9,736993790E0;-1,157348537E1;-2,474178553E0
1,862939519E2;7,704290867E0;-9,704092026E0;-2,639881611E0
1,863939519E2;4,141377926E0;-3,878167391E0;-9,008977413E-1
1,864939519E2;3,165106058E0;-2,096112728E0;-9,284151793E-1
1,865939519E2;6,617351055E0;-4,353740692E0;-2,075175524E0
1,866939519E2;5,694917679E0;-1,050508976E1;-1,723430514E0
1,867939519E2;7,593622684E0;-9,848259926E0;-1,855035782E0
1,868939519E2;8,150551796E0;-1,020897770E1;-2,288136721E0
1,869939519E2;4,036093712E0;-8,806185722E0;-2,348555326E0
1,870939519E2;8,795417786E0;-1,076949692E1;-1,397408366E0
1,871939519E2;5,742774487E0;-7,007979393E0;-1,210768223E0
1,872939519E2;4,839483738E0;-9,152546525E-2;-2,632703066E0
1,873939519E2;3,239881754E0;-4,523033142E0;-2,694318295E0
1,874939519E2;7,933403492E0;-7,119245529E0;-1,778465390E0
1,875939519E2;5,969494343E0;-1,113559818E1;-2,309073925E0
1,876939519E2;6,457031727E0;-8,736793518E0;-1,771286964E0
1,877939519E2;8,341380119E0;-9,629316330E0;-2,374278307E0
1,878939519E2;6,327221394E0;-9,035896301E0;-2,315654039E0
1,879939519E2;5,285745144E0;-7,663612843E0;-1,624128342E0
1,880939519E2;8,776275635E0;-9,139984131E0;-2,644667149E0
1,881939519E2;5,712863922E0;-4,735994339E0;-2,623131752E0
1,882939519E2;3,727419376E0;-2,443670034E0;-9,744769931E-1
1,883939519E2;6,314659119E0;-5,417948723E0;-1,359721422E0
1,884939519E2;8,163712502E0;-1,142094231E1;-2,467598438E0
1,885939519E2;6,263213158E0;-1,027478027E1;-1,896311998E0
1,886939519E2;4,928616524E0;-7,692326546E0;-1,595414519E0
1,887939519E2;5,519643784E0;-1,157109165E1;-1,294517040E0
1,888939519E2;6,607779503E0;-8,170292854E0;-1,593619823E0
1,889939519E2;7,542775154E0;-8,418548584E0;-2,038684845E0
1,890939519E2;5,669195175E0;-5,185844898E0;-2,029113531E0
1,891939519E2;2,827120066E0;-1,516451359E0;-1,796411633E0
1,892939519E2;7,068996429E0;-6,497709751E0;-1,176670551E0
1,893939519E2;5,976074696E0;-7,731209755E0;-1,533201098E0
1,894939519E2;7,189235687E0;-1,243310642E1;-2,251646042E0
1,895939519E2;3,991826296E0;-7,227520943E0;-9,116654396E-1
1,896939519E2;5,776273727E0;-6,854838848E0;-2,176870346E0
1,897939519E2;4,884349346E0;-1,138385391E1;-3,254238844E0
1,898939519E2;8,671588898E0;-1,040578747E1;-1,959721804E0
1,899939519E2;4,701896667E0;-3,061616659E0;-2,435893536E0
1,900939519E2;7,498507977E0;-6,980462074E0;-3,186641455E0
1,901939519E2;9,140582681E-1;-7,531409264E-1;-1,739582062E0
1,902939519E2;7,584051132E0;-3,197409153E0;-7,555337548E-1
1,903939519E2;7,012166977E0;-1,020359421E1;-2,134995937E0
1,904939519E2;5,815755367E0;-7,758129120E0;-2,867797852E0
1,905939519E2;5,955137253E0;-8,722436905E0;-1,481755376E0
1,906939519E2;5,380859852E0;-9,463015556E0;-9,020941257E-1
1,907939519E2;5,526822090E0;-9,343972206E0;-2,963510752E0
1,908939519E2;8,329415321E0;-6,944569588E0;-2,231307030E0
1,909939519E2;4,412963390E0;-2,249851465E0;-1,601994753E0
1,910939519E2;9,816554785E-1;-1,810768485E0;-1,298106313E0
1,911939519E2;6,379265308E0;-5,550152302E0;-1,778465390E0
1,912939519E2;5,928816319E0;-1,000857925E1;-3,553341627E-1
1,913939519E2;7,003193855E0;-1,056072235E1;-2,321636200E0
1,914939519E2;7,170691490E0;-1,354277802E1;-1,579262972E0
1,915939519E2;4,964509010E0;-8,705088615E0;-1,831107497E0
1,916939519E2;4,648656368E0;-1,153280735E1;-4,794020176E0
1,917939519E2;6,595815659E0;-8,542376518E0;-2,234298229E0
1,918939519E2;4,216153622E0;-6,269195557E0;-1,514058471E0
1,919939519E2;9,464211464E0;-7,126423836E0;-1,742573142E0
1,920939519E2;3,037090063E0;-1,868196249E0;-1,765903115E0
1,921939519E2;9,166305542E0;-4,534399033E0;-3,588635683E0
1,922939519E2;6,560521603E0;-5,128417015E0;-1,950748682E0
1,923939519E2;4,067798615E0;-4,996811867E0;-2,558525562E0
1,924939519E2;1,020658493E1;-1,023350430E1;-1,121635556E0
1,925939519E2;4,501497746E0;-1,046500969E1;-4,552344978E-1
1,926939519E2;2,450250387E0;-1,173978615E1;-9,487541914E-1
1,927939519E2;6,855436802E0;-6,972685337E0;-1,292124271E0
1,928939519E2;1,189232826E1;-6,390032768E0;-1,427318692E0
1,929939519E2;5,573482037E0;-7,884948730E0;-1,268794179E0
1,930939519E2;4,238286972E0;-1,443470240E0;-2,934797049E0
1,931939519E2;8,590831757E0;-4,631308079E0;-1,686939895E-1
1,932939519E2;1,007198906E1;-6,711269379E0;-2,757129908E0
1,933939519E2;9,422935486E0;-1,450110340E1;-4,037888050E0
1,934939519E2;6,037689686E0;-6,213562012E0;1,339980662E-1
1,935939519E2;5,879763603E0;-8,456234932E0;-2,872583628E0
1,936939519E2;4,574478626E0;-8,292326927E0;-3,573680639E0
1,937939519E2;6,148357868E0;-8,265407562E0;-8,536394835E-1
1,938939519E2;7,002595425E0;-7,397411346E0;-2,228914261E0
1,939939519E2;5,035097122E0;-4,906482697E0;6,388836503E-1
1,940939519E2;8,605188370E0;-4,938786030E0;-1,756331801E0
1,941939519E2;3,591028690E0;-8,835497856E0;-3,870390654E-1
1,942939519E2;8,233104706E0;-1,403151226E1;-1,874776483E0
1,943939519E2;5,222933769E0;-6,653841496E0;-1,478764415E0
1,944939519E2;6,860222340E0;-9,961320877E0;-1,682154298E0
1,945939519E2;8,257032394E0;-8,898308754E0;-2,394019127E0
1,946939519E2;6,401398659E0;-7,420741081E0;-1,658824325E0
1,947939519E2;4,124029636E0;-3,799204111E0;-2,190629244E0
1,948939519E2;3,577269793E0;-2,866003275E0;-1,204786181E0
1,949939519E2;5,766702652E0;-6,518048763E0;-2,024327993E0
1,950939519E2;5,564508915E0;-9,466006279E0;-1,643270969E0
1,951939519E2;7,258029461E0;-1,033759212E1;-5,539384484E-1
1,952939519E2;7,683951855E0;-8,214560509E0;-2,248655081E0
1,953939519E2;4,940580368E0;-9,514460564E0;1,160519004E0
1,954939519E2;5,414957523E0;-1,074796104E1;-1,413560033E0
1,955939519E2;4,782654285E0;-7,027719975E0;-2,514258385E0
1,956939519E2;8,023134232E0;-5,781059742E0;-2,132603168E0
1,957939519E2;3,340380430E0;-8,805587292E-1;-1,980060786E-1
1,958939519E2;3,919443607E0;-3,854837179E0;-2,855235577E0
1,959939519E2;7,287341595E0;-7,922037601E0;-1,861017823E0
1,960939519E2;6,117849350E0;-8,924630165E0;-2,092523336E0
1,961939519E2;4,469194412E0;-8,402995110E0;-1,606182218E0
1,962939519E2;5,469394207E0;-8,218149185E0;-3,098705292E0
1,963939519E2;4,225724697E0;-1,102134132E1;-2,434697151E0
1,964939519E2;5,464010715E0;-7,776673794E0;-1,634297848E0
1,965939519E2;8,044670105E0;-9,504291534E0;-2,160120726E0
1,966939519E2;4,856233597E0;-6,189633846E0;-1,756929994E0
1,967939519E2;8,222336769E0;-5,158925533E0;-1,901097536E0
1,968939519E2;3,681357622E0;-2,231307030E0;-1,261017561E0
1,969939519E2;5,215754986E0;-3,952943087E0;-1,066600680E0
1,970939519E2;6,748358250E0;-8,709276199E0;-1,843071699E0
1,971939519E2;6,621538639E0;-5,548357487E0;-2,015354872E0
1,972939519E2;6,206383705E0;-9,485747337E0;-2,958725214E0
1,973939519E2;1,345962763E0;-6,197410583E0;-1,884347796E-1
1,974939519E2;4,910670280E0;-1,039143085E1;-2,062014818E0
1,975939519E2;7,679764271E0;-8,737990379E0;-2,289931297E0
1,976939519E2;9,366106033E0;-7,728219032E0;-1,085145116E0
1,977939519E2;6,123831272E0;-7,642077446E0;-2,885145903E0
1,978939519E2;3,683750391E0;-6,474380016E0;-3,355933666E0
1,979939519E2;2,931207657E0;-3,172882795E0;-2,272583246E0
1,980939519E2;3,291327477E0;-8,262416840E0;-2,785245657E0
1,981939519E2;6,999006271E0;-1,076351452E1;-1,740180254E0
1,982939519E2;3,498904943E0;-8,330014229E0;-1,030110121E0
1,983939519E2;6,735795975E0;-8,576474190E0;-2,549552441E0
1,984939519E2;4,454837322E0;-1,039980507E1;-2,570489645E0
1,985939519E2;8,291728973E0;-8,286943436E0;-1,426720500E0
1,986939519E2;8,650651932E0;-7,292725086E0;-7,124629617E-1
1,987939519E2;7,396214962E0;-5,770890236E0;-1,741974831E0
1,988939519E2;7,304090977E0;-2,387438774E0;-2,919841766E0
1,989939519E2;7,325626373E0;-5,644668579E0;-2,452044964E0
1,990939519E2;3,409772158E0;-4,429712772E0;-3,045464993E0
1,991939519E2;4,563112736E0;-6,570092678E0;-2,170290232E0
1,992939519E2;5,963512421E0;-1,016171932E1;-2,817548752E0
1,993939519E2;5,207380295E0;-8,038687706E0;-2,203191519E0
1,994939519E2;5,591428280E0;-7,215556622E0;-2,440679073E-1
1,995939519E2;7,559525013E0;-8,245666504E0;-1,561316729E0
1,996939519E2;6,290730953E0;-6,415755749E0;-1,835893154E0
1,997939519E2;7,228118896E0;-8,015955687E-1;-2,297708035E0
1,998939519E2;1,223151112E1;-1,268674564E1;-7,287341595E0
1,999939519E2;4,852644444E0;-4,529613495E0;5,383850932E-1
2,000939519E2;4,842474937E0;-9,732806206E0;-1,152742267E0
2,001939519E2;6,674778938E0;-1,263470173E1;-2,870789051E0
2,002939519E2;5,955735683E0;-8,924032211E0;6,550351977E-1
2,003939519E2;9,108279228E0;-1,011147022E1;-2,568096876E0
2,004939519E2;5,694917679E0;-7,258627415E0;-2,364706993E0
2,005939519E2;1,060618639E0;-5,520241737E0;2,390429735E0
2,006939519E2;3,955934048E0;-3,276372433E0;-2,140379906E0
2,007939519E2;1,039860916E1;-1,167099285E1;-2,318645239E0
2,008939519E2;6,884150982E0;-4,302295208E0;-1,523629785E0
2,009939519E2;5,169693470E0;-8,446065903E0;-3,870390654E-1
2,010939519E2;6,585646152E0;-1,243789196E1;-8,679963946E-1
2,011939519E2;5,091926575E0;-8,563314438E0;-1,855633974E0
2,012939519E2;7,896314621E0;-8,127222061E0;-1,497308731E0
2,013939519E2;7,006783009E0;-8,040482521E0;-1,301097274E0
2,014939519E2;4,943571568E0;-1,963310957E0;-3,529413462E0
2,015939519E2;7,269395351E0;-2,322832584E0;-6,155536175E-1
2,016939519E2;6,571289062E0;-7,913662910E0;-1,286142170E-1
2,017939519E2;8,619544983E0;-1,324008560E1;-1,752742529E0
2,018939519E2;6,459424496E0;-1,041356373E1;-2,050648928E0
2,019939519E2;3,346960783E0;-7,898109436E0;-1,762313843E0
2,020939519E2;7,046862602E0;-9,887143135E0;-1,553540111E0
2,021939519E2;7,747361660E0;-4,453042984E0;-6,999006271E-1
2,022939519E2;2,316252232E0;-4,391427994E0;-5,521438122E-1
2,023939519E2;3,515056372E0;4,863412082E-1;-1,341177106E0
2,024939519E2;7,481758118E0;-7,792825222E0;-3,620938778E0
2,025939519E2;5,848656654E0;-1,206521034E1;-3,493520916E-1
2,026939519E2;7,381857872E0;-1,026819992E1;-9,062815905E-1
2,027939519E2;5,281557560E0;-8,488538742E0;5,144568533E-2
2,028939519E2;1,170987606E1;-1,344108295E1;-7,609176040E-1
2,029939519E2;4,296313286E0;-7,838887215E0;-1,274776220E0
2,030939519E2;9,970293999E0;-1,026939678E1;-2,319243431E0
2,031939519E2;6,867401004E-1;-2,598605394E0;-3,871587038E0
2,032939519E2;6,360720634E0;-5,979663849E0;-1,649253011E0
2,033939519E2;6,535995007E0;-1,161476135E1;-9,672985673E-1
2,034939519E2;4,082155228E0;-8,208578110E0;-1,655235052E0
2,035939519E2;8,066802979E0;-1,007079220E1;-1,728814363E0
2,036939519E2;9,837491989E0;-9,873982430E0;1,698904037E-1
2,037939519E2;1,064985561E1;-1,081316566E1;-2,595614433E0
2,038939519E2;4,404588223E0;-4,734199524E0;-7,339983582E-1
2,039939519E2;2,745764017E0;-1,016949654E0;-3,209971666E0
2,040939519E2;6,616752625E0;-6,591030121E0;-1,411765337E0
2,041939519E2;6,415755749E0;-8,493324280E0;-2,980858803E0
2,042939519E2;9,095717430E0;-1,091605663E1;-1,467398524E0
2,043939519E2;7,381259441E0;-8,085348129E0;-2,673979282E0
2,044939519E2;4,301696777E0;-7,098906517E0;-3,110669553E-1
2,045939519E2;2,711666346E0;-6,565307140E0;-2,036292076E0
2,046939519E2;1,174217892E1;-8,385646820E0;-1,966302037E0
2,047939519E2;3,635894060E0;-8,913264275E-1;-9,828519225E-1
2,048939519E2;7,631907940E0;-2,238485575E0;-1,177268744E0
2,049939519E2;6,784848690E0;-6,822535515E0;-1,827518344E0
2,050939519E2;7,218547821E0;-1,047876835E1;-2,542972326E0
2,051939519E2;4,264009953E0;-8,107481003E0;-2,200200319E0
2,052939519E2;6,142375946E0;-8,294719696E0;-2,815753937E0
2,053939519E2;6,918846607E0;-9,505488396E0;-1,655235052E0
2,054939519E2;6,305087566E0;-4,674977303E0;-1,933998942E0
2,055939519E2;4,153341770E0;-4,743771076E0;-3,865006685E0
2,056939519E2;2,800200701E0;-4,001996040E0;-3,369692564E0
2,057939519E2;7,051648140E0;-1,073838997E1;7,016952634E-1
2,058939519E2;5,389235020E0;-9,580264091E0;-1,253240824E0
2,059939519E2;6,398407936E0;-7,823333740E0;-1,329213023E0
2,060939519E2;7,365108013E0;-9,656235695E0;-3,037090063E0
2,061939519E2;7,744968891E0;-8,802596092E0;-1,669592023E0
2,062939519E2;7,765307903E0;-7,804191113E0;-1,392024517E0
2,063939519E2;5,359922886E0;-2,460419893E0;-2,252842426E0
