Time (s),Acceleration x (m/s^2),Acceleration y (m/s^2),Acceleration z (m/s^2),Gyroscope x (rad/s),Gyroscope y (rad/s),Gyroscope z (rad/s),Illuminance (lx),Linear Acceleration x (m/s^2),Linear Acceleration y (m/s^2),Linear Acceleration z (m/s^2),Latitude (°),Longitude (°),Height (m),Velocity (m/s),Direction (°),Horizontal Accuracy (m),Vertical Accuracy (m),Magnetic field x (µT),Magnetic field y (µT),Magnetic field z (µT),Pressure (hPa),Distance (cm),Temperature (°C),timestamp,transportation_mode,start_date
0.028159683,"-4,248456478E0","5,913262844E0","7,634898663E0",,,,,,,,,,,,,,,,,,,,,2024-06-05 09:56:18.001159683+02:00,bike,2024-06-05 09:56:17.973 UTC+02:00
0.093951869,"-3,725624800E0","4,013959885E0","7,512865067E0",,,,,,,,,,,,,,,,,,,,,2024-06-05 09:56:18.066951869+02:00,bike,2024-06-05 09:56:17.973 UTC+02:00
0.193951869,"-1,785643935E0","1,302293777E0","1,036690426E1",,,,,,,,,,,,,,,,,,,,,2024-06-05 09:56:18.166951869+02:00,bike,2024-06-05 09:56:17.973 UTC+02:00
0.293951869,"-4,809573591E-1","1,625324726E0","8,145168304E0",,,,,,,,,,,,,,,,,,,,,2024-06-05 09:56:18.266951869+02:00,bike,2024-06-05 09:56:17.973 UTC+02:00
0.393951869,"1,948355794E0","1,895713687E0","1,033639526E1",,,,,,,,,,,,,,,,,,,,,2024-06-05 09:56:18.366951869+02:00,bike,2024-06-05 09:56:17.973 UTC+02:00
0.493951869,"1,998006850E-1","1,713261008E0","8,252845764E0",,,,,,,,,,,,,,,,,,,,,2024-06-05 09:56:18.466951869+02:00,bike,2024-06-05 09:56:17.973 UTC+02:00
0.593951869,"2,248655081E0","1,625923038E0","8,507082939E0",,,,,,,,,,,,,,,,,,,,,2024-06-05 09:56:18.566951869+02:00,bike,2024-06-05 09:56:17.973 UTC+02:00
0.693951869,"4,793421745E0","-6,299105883E-1","4,179663181E0",,,,,,,,,,,,,,,,,,,,,2024-06-05 09:56:18.666951869+02:00,bike,2024-06-05 09:56:17.973 UTC+02:00
0.793951869,"4,858027935E0","-1,652842283E0","8,877372146E-1",,,,,,,,,,,,,,,,,,,,,2024-06-05 09:56:18.766951869+02:00,bike,2024-06-05 09:56:17.973 UTC+02:00
0.893951869,"1,083350468E1","-6,937989235E0","9,142376900E0",,,,,,,,,,,,,,,,,,,,,2024-06-05 09:56:18.866951869+02:00,bike,2024-06-05 09:56:17.973 UTC+02:00
0.993951869,"1,744547081E1","-7,554739475E0","9,675976753E0",,,,,,,,,,,,,,,,,,,,,2024-06-05 09:56:18.966951869+02:00,bike,2024-06-05 09:56:17.973 UTC+02:00
1.093951869,"1,451486206E1","-6,760322094E0","1,041476011E0",,,,,,,,,,,,,,,,,,,,,2024-06-05 09:56:19.066951869+02:00,bike,2024-06-05 09:56:17.973 UTC+02:00
1.193951869,"5,830112457E0","-9,960124016E0","1,923829436E0",,,,,,,,,,,,,,,,,,,,,2024-06-05 09:56:19.166951869+02:00,bike,2024-06-05 09:56:17.973 UTC+02:00
1.293951869,"6,765107632E0","7,387840152E-1","2,592025042E0",,,,,,,,,,,,,,,,,,,,,2024-06-05 09:56:19.266951869+02:00,bike,2024-06-05 09:56:17.973 UTC+02:00
1.393951869,"4,040879250E0","-3,077169895E0","-3,511467278E-1",,,,,,,,,,,,,,,,,,,,,2024-06-05 09:56:19.366951869+02:00,bike,2024-06-05 09:56:17.973 UTC+02:00
1.493951869,"2,782254457E0","-9,460622787E0","2,985046148E0",,,,,,,,,,,,,,,,,,,,,2024-06-05 09:56:19.466951869+02:00,bike,2024-06-05 09:56:17.973 UTC+02:00
1.593951869,"6,277570248E0","-7,377072334E0","1,001396298E0",,,,,,,,,,,,,,,,,,,,,2024-06-05 09:56:19.566951869+02:00,bike,2024-06-05 09:56:17.973 UTC+02:00
1.693951869,"1,093519974E1","-8,005785942E0","2,030309916E0",,,,,,,,,,,,,,,,,,,,,2024-06-05 09:56:19.666951869+02:00,bike,2024-06-05 09:56:17.973 UTC+02:00
1.793951869,"9,979267120E0","-7,068397999E0","2,312663078E0",,,,,,,,,,,,,,,,,,,,,2024-06-05 09:56:19.766951869+02:00,bike,2024-06-05 09:56:17.973 UTC+02:00
1.893951869,"2,754138947E0","-4,594219685E0","-1,433898926E0",,,,,,,,,,,,,,,,,,,,,2024-06-05 09:56:19.866951869+02:00,bike,2024-06-05 09:56:17.973 UTC+02:00
1.993951869,"3,505485058E0","-6,745367050E0","-6,909275651E-1",,,,,,,,,,,,,,,,,,,,,2024-06-05 09:56:19.966951869+02:00,bike,2024-06-05 09:56:17.973 UTC+02:00
2.093951869,"-1,937588096E0","-1,061157036E1","2,605185747E0",,,,,,,,,,,,,,,,,,,,,2024-06-05 09:56:20.066951869+02:00,bike,2024-06-05 09:56:17.973 UTC+02:00
2.193951869,"-4,171288013E0","-1,271306705E1","2,214557409E0",,,,,,,,,,,,,,,,,,,,,2024-06-05 09:56:20.166951869+02:00,bike,2024-06-05 09:56:17.973 UTC+02:00
2.293951869,"-1,533799291E0","-1,074975586E1","2,657827854E0",,,,,,,,,,,,,,,,,,,,,2024-06-05 09:56:20.266951869+02:00,bike,2024-06-05 09:56:17.973 UTC+02:00
2.393951869,"-3,332603693E0","-1,124925709E1","3,749552965E0",,,,,,,,,,,,,,,,,,,,,2024-06-05 09:56:20.366951869+02:00,bike,2024-06-05 09:56:17.973 UTC+02:00
2.493951869,"-7,034898400E-1","-1,110509014E1","-2,159522474E-1",,,,,,,,,,,,,,,,,,,,,2024-06-05 09:56:20.466951869+02:00,bike,2024-06-05 09:56:17.973 UTC+02:00
2.593951869,"5,982056609E-4","-1,170389366E1","-4,046263218E0",,,,,,,,,,,,,,,,,,,,,2024-06-05 09:56:20.566951869+02:00,bike,2024-06-05 09:56:17.973 UTC+02:00
2.693951869,"-4,713262558E0","-1,166501045E1","-4,101297855E0",,,,,,,,,,,,,,,,,,,,,2024-06-05 09:56:20.666951869+02:00,bike,2024-06-05 09:56:17.973 UTC+02:00
2.793951869,"-4,217350006E0","-3,872783422E0","-5,042873859E0",,,,,,,,,,,,,,,,,,,,,2024-06-05 09:56:20.766951869+02:00,bike,2024-06-05 09:56:17.973 UTC+02:00
2.893951869,"-5,356931686E0","-2,670390129E0","-4,850849628E0",,,,,,,,,,,,,,,,,,,,,2024-06-05 09:56:20.866951869+02:00,bike,2024-06-05 09:56:17.973 UTC+02:00
2.993951869,"-6,507879257E0","-7,447660565E-1","-4,009772778E0",,,,,,,,,,,,,,,,,,,,,2024-06-05 09:56:20.966951869+02:00,bike,2024-06-05 09:56:17.973 UTC+02:00
3.093951869,"-6,276373863E0","-3,182454109E-1","-5,319244862E0",,,,,,,,,,,,,,,,,,,,,2024-06-05 09:56:21.066951869+02:00,bike,2024-06-05 09:56:17.973 UTC+02:00
3.193951869,"-6,556334019E0","-1,524227977E0","-6,489335060E0",,,,,,,,,,,,,,,,,,,,,2024-06-05 09:56:21.166951869+02:00,bike,2024-06-05 09:56:17.973 UTC+02:00
3.293951869,"-6,191428661E0","-2,548954248E0","-5,662614822E0",,,,,,,,,,,,,,,,,,,,,2024-06-05 09:56:21.266951869+02:00,bike,2024-06-05 09:56:17.973 UTC+02:00
3.393951869,"-6,203990936E0","-4,068994999E0","-6,508477688E0",,,,,,,,,,,,,,,,,,,,,2024-06-05 09:56:21.366951869+02:00,bike,2024-06-05 09:56:17.973 UTC+02:00
3.493951869,"-6,963113785E0","-3,580260992E0","-6,894320011E0",,,,,,,,,,,,,,,,,,,,,2024-06-05 09:56:21.466951869+02:00,bike,2024-06-05 09:56:17.973 UTC+02:00
3.593951869,"-4,737788677E0","-4,557130814E0","-8,350353241E0",,,,,,,,,,,,,,,,,,,,,2024-06-05 09:56:21.566951869+02:00,bike,2024-06-05 09:56:17.973 UTC+02:00
3.693951869,"-2,852842808E0","-3,825525284E0","-4,989035130E0",,,,,,,,,,,,,,,,,,,,,2024-06-05 09:56:21.666951869+02:00,bike,2024-06-05 09:56:17.973 UTC+02:00
3.793951869,"-9,421738982E-1","-6,681358814E0","-8,372486115E0",,,,,,,,,,,,,,,,,,,,,2024-06-05 09:56:21.766951869+02:00,bike,2024-06-05 09:56:17.973 UTC+02:00
3.893951869,"-2,033899277E-1","-7,520641804E0","-7,190432072E0",,,,,,,,,,,,,,,,,,,,,2024-06-05 09:56:21.866951869+02:00,bike,2024-06-05 09:56:17.973 UTC+02:00
3.993951869,"8,560323119E-1","-6,659225464E0","-6,082555294E0",,,,,,,,,,,,,,,,,,,,,2024-06-05 09:56:21.966951869+02:00,bike,2024-06-05 09:56:17.973 UTC+02:00
4.093951869,"1,495514158E-2","-6,957729816E0","-5,018347263E0",,,,,,,,,,,,,,,,,,,,,2024-06-05 09:56:22.066951869+02:00,bike,2024-06-05 09:56:17.973 UTC+02:00
4.193951869,"3,609572887E0","-1,066241741E1","-8,223533630E0",,,,,,,,,,,,,,,,,,,,,2024-06-05 09:56:22.166951869+02:00,bike,2024-06-05 09:56:17.973 UTC+02:00
4.293951869,"2,026720762E0","-7,086344242E0","-5,515456200E0",,,,,,,,,,,,,,,,,,,,,2024-06-05 09:56:22.266951869+02:00,bike,2024-06-05 09:56:17.973 UTC+02:00
4.393951869,"2,087737799E0","-8,145766258E0","-7,350152969E0",,,,,,,,,,,,,,,,,,,,,2024-06-05 09:56:22.366951869+02:00,bike,2024-06-05 09:56:17.973 UTC+02:00
4.493951869,"1,857428551E0","-8,437690735E0","-6,151947021E0",,,,,,,,,,,,,,,,,,,,,2024-06-05 09:56:22.466951869+02:00,bike,2024-06-05 09:56:17.973 UTC+02:00
4.593951869,"2,965903759E0","-6,723831654E0","-6,125626087E0",,,,,,,,,,,,,,,,,,,,,2024-06-05 09:56:22.566951869+02:00,bike,2024-06-05 09:56:17.973 UTC+02:00
4.693951869,"3,173480988E0","-6,213562012E0","-6,880561352E0",,,,,,,,,,,,,,,,,,,,,2024-06-05 09:56:22.666951869+02:00,bike,2024-06-05 09:56:17.973 UTC+02:00
4.793951869,"3,607180119E0","-5,014159679E0","-9,659825325E0",,,,,,,,,,,,,,,,,,,,,2024-06-05 09:56:22.766951869+02:00,bike,2024-06-05 09:56:17.973 UTC+02:00
4.893951869,"4,192225456E0","-5,493322372E0","-9,897313118E0",,,,,,,,,,,,,,,,,,,,,2024-06-05 09:56:22.866951869+02:00,bike,2024-06-05 09:56:17.973 UTC+02:00
4.993951869,"1,336391449E0","-5,006981373E0","-8,910273552E0",,,,,,,,,,,,,,,,,,,,,2024-06-05 09:56:22.966951869+02:00,bike,2024-06-05 09:56:17.973 UTC+02:00
5.093951869,"-1,322034448E-1","-3,078964472E0","-6,967301369E0",,,,,,,,,,,,,,,,,,,,,2024-06-05 09:56:23.066951869+02:00,bike,2024-06-05 09:56:17.973 UTC+02:00
5.193951869,"9,122636318E-1","-6,532405615E-1","-8,559126854E0",,,,,,,,,,,,,,,,,,,,,2024-06-05 09:56:23.166951869+02:00,bike,2024-06-05 09:56:17.973 UTC+02:00
5.293951869,"3,734597921E0","-5,506483078E0","-9,565308571E0",,,,,,,,,,,,,,,,,,,,,2024-06-05 09:56:23.266951869+02:00,bike,2024-06-05 09:56:17.973 UTC+02:00
5.393951869,"1,205384374E0","-2,840280533E0","-6,753741741E0",,,,,,,,,,,,,,,,,,,,,2024-06-05 09:56:23.366951869+02:00,bike,2024-06-05 09:56:17.973 UTC+02:00
5.493951869,"2,187638044E0","-7,060621262E0","-5,667998791E0",,,,,,,,,,,,,,,,,,,,,2024-06-05 09:56:23.466951869+02:00,bike,2024-06-05 09:56:17.973 UTC+02:00
5.593951869,"1,808375716E0","-1,065822983E1","-6,735197544E0",,,,,,,,,,,,,,,,,,,,,2024-06-05 09:56:23.566951869+02:00,bike,2024-06-05 09:56:17.973 UTC+02:00
5.693951869,"2,268395901E0","-8,795417786E0","-9,098708153E0",,,,,,,,,,,,,,,,,,,,,2024-06-05 09:56:23.666951869+02:00,bike,2024-06-05 09:56:17.973 UTC+02:00
5.793951869,"3,595814228E0","-7,971090317E0","-3,987040758E0",,,,,,,,,,,,,,,,,,,,,2024-06-05 09:56:23.766951869+02:00,bike,2024-06-05 09:56:17.973 UTC+02:00
5.893951869,"3,735196114E0","-7,013363361E0","-8,392825127E0",,,,,,,,,,,,,,,,,,,,,2024-06-05 09:56:23.866951869+02:00,bike,2024-06-05 09:56:17.973 UTC+02:00
5.993951869,"4,322634220E0","-7,629515171E0","-7,417151928E0",,,,,,,,,,,,,,,,,,,,,2024-06-05 09:56:23.966951869+02:00,bike,2024-06-05 09:56:17.973 UTC+02:00
6.093951869,"6,167500615E-1","-4,353740692E0","-6,796214581E0",,,,,,,,,,,,,,,,,,,,,2024-06-05 09:56:24.066951869+02:00,bike,2024-06-05 09:56:17.973 UTC+02:00
6.193951869,"3,852444589E-1","-1,517647743E0","-4,275974274E0",,,,,,,,,,,,,,,,,,,,,2024-06-05 09:56:24.166951869+02:00,bike,2024-06-05 09:56:17.973 UTC+02:00
6.293951869,"1,900499344E0","-2,497508526E0","-6,947560310E0",,,,,,,,,,,,,,,,,,,,,2024-06-05 09:56:24.266951869+02:00,bike,2024-06-05 09:56:17.973 UTC+02:00
6.393951869,"3,596412420E0","-4,909473896E0","-6,430710793E0",,,,,,,,,,,,,,,,,,,,,2024-06-05 09:56:24.366951869+02:00,bike,2024-06-05 09:56:17.973 UTC+02:00
6.493951869,"2,829512835E0","-1,011625576E1","-7,907082558E0",,,,,,,,,,,,,,,,,,,,,2024-06-05 09:56:24.466951869+02:00,bike,2024-06-05 09:56:17.973 UTC+02:00
6.593951869,"2,372483730E0","-8,045268059E0","-5,158925533E0",,,,,,,,,,,,,,,,,,,,,2024-06-05 09:56:24.566951869+02:00,bike,2024-06-05 09:56:17.973 UTC+02:00
6.693951869,"2,251047850E0","-8,313263893E0","-5,428118229E0",,,,,,,,,,,,,,,,,,,,,2024-06-05 09:56:24.666951869+02:00,bike,2024-06-05 09:56:17.973 UTC+02:00
6.793951869,"3,561716557E0","-7,949554920E0","-4,804787636E0",,,,,,,,,,,,,,,,,,,,,2024-06-05 09:56:24.766951869+02:00,bike,2024-06-05 09:56:17.973 UTC+02:00
6.893951869,"4,232305050E0","-6,130411625E0","-6,724429607E0",,,,,,,,,,,,,,,,,,,,,2024-06-05 09:56:24.866951869+02:00,bike,2024-06-05 09:56:17.973 UTC+02:00
6.993951869,"4,869394302E0","-8,863015175E0","-1,003011417E1",,,,,,,,,,,,,,,,,,,,,2024-06-05 09:56:24.966951869+02:00,bike,2024-06-05 09:56:17.973 UTC+02:00
7.093951869,"-1,088136077E0","-1,697109461E0","-4,454837322E0",,,,,,,,,,,,,,,,,,,,,2024-06-05 09:56:25.066951869+02:00,bike,2024-06-05 09:56:17.973 UTC+02:00
7.193951869,"-5,264209956E-2","-1,374078393E0","-4,354339123E0",,,,,,,,,,,,,,,,,,,,,2024-06-05 09:56:25.166951869+02:00,bike,2024-06-05 09:56:17.973 UTC+02:00
7.293951869,"2,525026083E0","-4,727619171E0","-7,518248558E0",,,,,,,,,,,,,,,,,,,,,2024-06-05 09:56:25.266951869+02:00,bike,2024-06-05 09:56:17.973 UTC+02:00
7.393951869,"3,740580082E0","-5,719444275E0","-6,694519520E0",,,,,,,,,,,,,,,,,,,,,2024-06-05 09:56:25.366951869+02:00,bike,2024-06-05 09:56:17.973 UTC+02:00
7.493951869,"1,794018745E0","-1,013180923E1","-6,736393929E0",,,,,,,,,,,,,,,,,,,,,2024-06-05 09:56:25.466951869+02:00,bike,2024-06-05 09:56:17.973 UTC+02:00
7.593951869,"2,130210400E0","-9,066405296E0","-6,625127792E0",,,,,,,,,,,,,,,,,,,,,2024-06-05 09:56:25.566951869+02:00,bike,2024-06-05 09:56:17.973 UTC+02:00
7.693951869,"3,574278831E0","-9,439086914E0","-5,434100151E0",,,,,,,,,,,,,,,,,,,,,2024-06-05 09:56:25.666951869+02:00,bike,2024-06-05 09:56:17.973 UTC+02:00
7.793951869,"4,073182583E0","-5,057828903E0","-5,839085579E0",,,,,,,,,,,,,,,,,,,,,2024-06-05 09:56:25.766951869+02:00,bike,2024-06-05 09:56:17.973 UTC+02:00
7.893951869,"2,970689297E0","-5,658427238E0","-7,050451756E0",,,,,,,,,,,,,,,,,,,,,2024-06-05 09:56:25.866951869+02:00,bike,2024-06-05 09:56:17.973 UTC+02:00
7.993951869,"7,369893789E-1","-1,628315806E0","-5,912066460E0",,,,,,,,,,,,,,,,,,,,,2024-06-05 09:56:25.966951869+02:00,bike,2024-06-05 09:56:17.973 UTC+02:00
8.093951869,"1,110269666E0","-2,602194548E0","-6,607181549E0",,,,,,,,,,,,,,,,,,,,,2024-06-05 09:56:26.066951869+02:00,bike,2024-06-05 09:56:17.973 UTC+02:00
8.193951869,"2,187638044E0","-2,316850424E0","-5,429912567E0",,,,,,,,,,,,,,,,,,,,,2024-06-05 09:56:26.166951869+02:00,bike,2024-06-05 09:56:17.973 UTC+02:00
8.293951869,"2,801397085E0","-6,297310829E0","-6,310471535E0",,,,,,,,,,,,,,,,,,,,,2024-06-05 09:56:26.266951869+02:00,bike,2024-06-05 09:56:17.973 UTC+02:00
8.393951869,"3,116651535E0","-1,117268753E1","-7,091129780E0",,,,,,,,,,,,,,,,,,,,,2024-06-05 09:56:26.366951869+02:00,bike,2024-06-05 09:56:17.973 UTC+02:00
8.493951869,"2,428116798E0","-9,416355133E0","-6,285346985E0",,,,,,,,,,,,,,,,,,,,,2024-06-05 09:56:26.466951869+02:00,bike,2024-06-05 09:56:17.973 UTC+02:00
8.593951869,"2,488535643E0","-1,003789139E1","-6,153741837E0",,,,,,,,,,,,,,,,,,,,,2024-06-05 09:56:26.566951869+02:00,bike,2024-06-05 09:56:17.973 UTC+02:00
8.693951869,"2,876770973E0","-8,618947029E0","-4,804189682E0",,,,,,,,,,,,,,,,,,,,,2024-06-05 09:56:26.666951869+02:00,bike,2024-06-05 09:56:17.973 UTC+02:00
8.793951869,"4,588835716E0","-6,569494724E0","-6,773482800E0",,,,,,,,,,,,,,,,,,,,,2024-06-05 09:56:26.766951869+02:00,bike,2024-06-05 09:56:17.973 UTC+02:00
8.893951869,"5,805585861E0","-7,523034573E0","-1,010788059E1",,,,,,,,,,,,,,,,,,,,,2024-06-05 09:56:26.866951869+02:00,bike,2024-06-05 09:56:17.973 UTC+02:00
8.993951869,"-1,045065284E0","-1,862214208E0","-3,313461065E0",,,,,,,,,,,,,,,,,,,,,2024-06-05 09:56:26.966951869+02:00,bike,2024-06-05 09:56:17.973 UTC+02:00
9.093951869,"5,551348329E-1","-2,210369825E0","-6,578467846E0",,,,,,,,,,,,,,,,,,,,,2024-06-05 09:56:27.066951869+02:00,bike,2024-06-05 09:56:17.973 UTC+02:00
9.193951869,"2,539981127E0","-1,837687731E0","-6,633502483E0",,,,,,,,,,,,,,,,,,,,,2024-06-05 09:56:27.166951869+02:00,bike,2024-06-05 09:56:17.973 UTC+02:00
9.293951869,"1,948355794E0","-4,673780918E0","-4,780261517E0",,,,,,,,,,,,,,,,,,,,,2024-06-05 09:56:27.266951869+02:00,bike,2024-06-05 09:56:17.973 UTC+02:00
9.393951869,"2,353341103E0","-1,210170078E1","-7,548159122E0",,,,,,,,,,,,,,,,,,,,,2024-06-05 09:56:27.366951869+02:00,bike,2024-06-05 09:56:17.973 UTC+02:00
9.493951869,"2,794816732E0","-1,035194874E1","-6,556932449E0",,,,,,,,,,,,,,,,,,,,,2024-06-05 09:56:27.466951869+02:00,bike,2024-06-05 09:56:17.973 UTC+02:00
9.593951869,"1,614557028E0","-8,632107735E0","-4,913063049E0",,,,,,,,,,,,,,,,,,,,,2024-06-05 09:56:27.566951869+02:00,bike,2024-06-05 09:56:17.973 UTC+02:00
9.693951869,"2,806182861E0","-9,671789169E0","-6,342176437E0",,,,,,,,,,,,,,,,,,,,,2024-06-05 09:56:27.666951869+02:00,bike,2024-06-05 09:56:17.973 UTC+02:00
9.793951869,"3,328416348E0","-7,392625332E0","-6,507281303E0",,,,,,,,,,,,,,,,,,,,,2024-06-05 09:56:27.766951869+02:00,bike,2024-06-05 09:56:17.973 UTC+02:00
9.893951869,"3,839882135E0","-6,184250355E0","-6,957729816E0",,,,,,,,,,,,,,,,,,,,,2024-06-05 09:56:27.866951869+02:00,bike,2024-06-05 09:56:17.973 UTC+02:00
9.993951869,"3,125624657E0","-5,513661385E0","-7,049255371E0",,,,,,,,,,,,,,,,,,,,,2024-06-05 09:56:27.966951869+02:00,bike,2024-06-05 09:56:17.973 UTC+02:00
10.09395187,"1,289133191E0","-5,932405472E0","-5,231308460E0",,,,,,,,,,,,,,,,,,,,,2024-06-05 09:56:28.066951870+02:00,bike,2024-06-05 09:56:17.973 UTC+02:00
10.19395187,"5,419743061E-1","1,136590727E-2","-5,422734261E0",,,,,,,,,,,,,,,,,,,,,2024-06-05 09:56:28.166951870+02:00,bike,2024-06-05 09:56:17.973 UTC+02:00
10.29395187,"4,526622295E0","-9,165108681E0","-1,148016453E1",,,,,,,,,,,,,,,,,,,,,2024-06-05 09:56:28.266951870+02:00,bike,2024-06-05 09:56:17.973 UTC+02:00
10.39395187,"5,898307562E-1","-4,808377266E0","-3,725624800E0",,,,,,,,,,,,,,,,,,,,,2024-06-05 09:56:28.366951870+02:00,bike,2024-06-05 09:56:17.973 UTC+02:00
10.49395187,"2,344966173E0","-8,602795601E0","-6,177670002E0",,,,,,,,,,,,,,,,,,,,,2024-06-05 09:56:28.466951870+02:00,bike,2024-06-05 09:56:17.973 UTC+02:00
10.59395187,"3,674777269E0","-1,329033470E1","-7,801798344E0",,,,,,,,,,,,,,,,,,,,,2024-06-05 09:56:28.566951870+02:00,bike,2024-06-05 09:56:17.973 UTC+02:00
10.69395187,"2,668595552E0","-9,014361382E0","-7,011568546E0",,,,,,,,,,,,,,,,,,,,,2024-06-05 09:56:28.666951870+02:00,bike,2024-06-05 09:56:17.973 UTC+02:00
10.79395187,"5,165505886E0","-9,620343208E0","-6,666403770E0",,,,,,,,,,,,,,,,,,,,,2024-06-05 09:56:28.766951870+02:00,bike,2024-06-05 09:56:17.973 UTC+02:00
10.89395187,"3,140579700E0","-7,526623726E0","-5,411966801E0",,,,,,,,,,,,,,,,,,,,,2024-06-05 09:56:28.866951870+02:00,bike,2024-06-05 09:56:17.973 UTC+02:00
10.99395187,"4,498506546E0","-6,587440968E0","-8,484351158E0",,,,,,,,,,,,,,,,,,,,,2024-06-05 09:56:28.966951870+02:00,bike,2024-06-05 09:56:17.973 UTC+02:00
11.09395187,"1,188634634E0","-3,047259569E0","-5,639284611E0",,,,,,,,,,,,,,,,,,,,,2024-06-05 09:56:29.066951870+02:00,bike,2024-06-05 09:56:17.973 UTC+02:00
11.19395187,"9,511470199E-1","-1,922034740E0","-6,205785751E0",,,,,,,,,,,,,,,,,,,,,2024-06-05 09:56:29.166951870+02:00,bike,2024-06-05 09:56:17.973 UTC+02:00
11.29395187,"2,435893536E0","-2,621337175E0","-6,557530403E0",,,,,,,,,,,,,,,,,,,,,2024-06-05 09:56:29.266951870+02:00,bike,2024-06-05 09:56:17.973 UTC+02:00
11.39395187,"2,504088879E0","-3,399004459E0","-6,559923172E0",,,,,,,,,,,,,,,,,,,,,2024-06-05 09:56:29.366951870+02:00,bike,2024-06-05 09:56:17.973 UTC+02:00
11.49395187,"2,111067772E0","-6,014359951E0","-7,153343201E0",,,,,,,,,,,,,,,,,,,,,2024-06-05 09:56:29.466951870+02:00,bike,2024-06-05 09:56:17.973 UTC+02:00
11.59395187,"3,118446112E0","-9,091529846E0","-7,063612461E0",,,,,,,,,,,,,,,,,,,,,2024-06-05 09:56:29.566951870+02:00,bike,2024-06-05 09:56:17.973 UTC+02:00
11.69395187,"3,122035265E0","-9,958329201E0","-6,751947403E0",,,,,,,,,,,,,,,,,,,,,2024-06-05 09:56:29.666951870+02:00,bike,2024-06-05 09:56:17.973 UTC+02:00
11.79395187,"2,564507723E0","-7,826922894E0","-5,715256691E0",,,,,,,,,,,,,,,,,,,,,2024-06-05 09:56:29.766951870+02:00,bike,2024-06-05 09:56:17.973 UTC+02:00
11.89395187,"3,932604074E0","-8,487341881E0","-7,016354084E0",,,,,,,,,,,,,,,,,,,,,2024-06-05 09:56:29.866951870+02:00,bike,2024-06-05 09:56:17.973 UTC+02:00
11.99395187,"4,196412563E0","-7,690532207E0","-6,952944279E0",,,,,,,,,,,,,,,,,,,,,2024-06-05 09:56:29.966951870+02:00,bike,2024-06-05 09:56:17.973 UTC+02:00
12.09395187,"2,750549555E0","-5,081159115E0","-5,976672649E0",,,,,,,,,,,,,,,,,,,,,2024-06-05 09:56:30.066951870+02:00,bike,2024-06-05 09:56:17.973 UTC+02:00
12.19395187,"1,771885157E0","-3,117249727E0","-7,616354465E0",,,,,,,,,,,,,,,,,,,,,2024-06-05 09:56:30.166951870+02:00,bike,2024-06-05 09:56:17.973 UTC+02:00
12.29395187,"1,191027522E0","-2,269592285E0","-7,242475986E0",,,,,,,,,,,,,,,,,,,,,2024-06-05 09:56:30.266951870+02:00,bike,2024-06-05 09:56:17.973 UTC+02:00
12.39395187,"3,085544825E0","-3,595216036E0","-6,806384087E0",,,,,,,,,,,,,,,,,,,,,2024-06-05 09:56:30.366951870+02:00,bike,2024-06-05 09:56:17.973 UTC+02:00
12.49395187,"5,320441246E0","-4,797609329E0","-6,462415695E0",,,,,,,,,,,,,,,,,,,,,2024-06-05 09:56:30.466951870+02:00,bike,2024-06-05 09:56:17.973 UTC+02:00
12.59395187,"3,731606960E0","-1,038903809E1","-7,478767395E0",,,,,,,,,,,,,,,,,,,,,2024-06-05 09:56:30.566951870+02:00,bike,2024-06-05 09:56:17.973 UTC+02:00
12.69395187,"2,400599241E0","-8,710473061E0","-5,582455158E0",,,,,,,,,,,,,,,,,,,,,2024-06-05 09:56:30.666951870+02:00,bike,2024-06-05 09:56:17.973 UTC+02:00
12.79395187,"2,410768747E0","-8,776275635E0","-5,337191105E0",,,,,,,,,,,,,,,,,,,,,2024-06-05 09:56:30.766951870+02:00,bike,2024-06-05 09:56:17.973 UTC+02:00
12.89395187,"4,109074593E0","-9,865009308E0","-5,008177757E0",,,,,,,,,,,,,,,,,,,,,2024-06-05 09:56:30.866951870+02:00,bike,2024-06-05 09:56:17.973 UTC+02:00
12.99395187,"4,381856441E0","-8,432307243E0","-5,620740414E0",,,,,,,,,,,,,,,,,,,,,2024-06-05 09:56:30.966951870+02:00,bike,2024-06-05 09:56:17.973 UTC+02:00
13.09395187,"4,487739086E0","-5,423930645E0","-8,099106789E0",,,,,,,,,,,,,,,,,,,,,2024-06-05 09:56:31.066951870+02:00,bike,2024-06-05 09:56:17.973 UTC+02:00
13.19395187,"5,270192027E-1","-1,263410330E0","-3,333201885E0",,,,,,,,,,,,,,,,,,,,,2024-06-05 09:56:31.166951870+02:00,bike,2024-06-05 09:56:17.973 UTC+02:00
13.29395187,"1,506281853E0","-1,501496196E0","-5,011766911E0",,,,,,,,,,,,,,,,,,,,,2024-06-05 09:56:31.266951870+02:00,bike,2024-06-05 09:56:17.973 UTC+02:00
13.39395187,"2,015354872E0","-2,440080881E0","-5,431707382E0",,,,,,,,,,,,,,,,,,,,,2024-06-05 09:56:31.366951870+02:00,bike,2024-06-05 09:56:17.973 UTC+02:00
13.49395187,"2,834298372E0","-5,980261803E0","-6,061617851E0",,,,,,,,,,,,,,,,,,,,,2024-06-05 09:56:31.466951870+02:00,bike,2024-06-05 09:56:17.973 UTC+02:00
13.59395187,"5,100899696E0","-1,020718288E1","-8,401798248E0",,,,,,,,,,,,,,,,,,,,,2024-06-05 09:56:31.566951870+02:00,bike,2024-06-05 09:56:17.973 UTC+02:00
13.69395187,"1,272383451E0","-9,569496155E0","-5,754738331E0",,,,,,,,,,,,,,,,,,,,,2024-06-05 09:56:31.666951870+02:00,bike,2024-06-05 09:56:17.973 UTC+02:00
13.79395187,"2,018345833E0","-1,325384426E1","-6,086742401E0",,,,,,,,,,,,,,,,,,,,,2024-06-05 09:56:31.766951870+02:00,bike,2024-06-05 09:56:17.973 UTC+02:00
13.89395187,"2,298904419E0","-4,771288395E0","-1,363310695E0",,,,,,,,,,,,,,,,,,,,,2024-06-05 09:56:31.866951870+02:00,bike,2024-06-05 09:56:17.973 UTC+02:00
13.99395187,"6,342176437E0","-1,016411209E1","-8,527421951E0",,,,,,,,,,,,,,,,,,,,,2024-06-05 09:56:31.966951870+02:00,bike,2024-06-05 09:56:17.973 UTC+02:00
14.09395187,"6,043073654E0","-1,199163055E1","-7,233502865E0",,,,,,,,,,,,,,,,,,,,,2024-06-05 09:56:32.066951870+02:00,bike,2024-06-05 09:56:17.973 UTC+02:00
14.19395187,"2,570489645E0","-2,772084951E0","-5,783452511E0",,,,,,,,,,,,,,,,,,,,,2024-06-05 09:56:32.166951870+02:00,bike,2024-06-05 09:56:17.973 UTC+02:00
14.29395187,"3,169293642E0","-4,433900356E0","-7,012764931E0",,,,,,,,,,,,,,,,,,,,,2024-06-05 09:56:32.266951870+02:00,bike,2024-06-05 09:56:17.973 UTC+02:00
14.39395187,"2,879163742E0","3,565305769E-1","-5,869594097E0",,,,,,,,,,,,,,,,,,,,,2024-06-05 09:56:32.366951870+02:00,bike,2024-06-05 09:56:17.973 UTC+02:00
14.49395187,"1,851446509E0","-4,594817638E0","-7,163512707E0",,,,,,,,,,,,,,,,,,,,,2024-06-05 09:56:32.466951870+02:00,bike,2024-06-05 09:56:17.973 UTC+02:00
14.59395187,"2,526820660E0","-7,900502205E0","-5,179862976E0",,,,,,,,,,,,,,,,,,,,,2024-06-05 09:56:32.566951870+02:00,bike,2024-06-05 09:56:17.973 UTC+02:00
14.69395187,"3,184248686E0","-6,543771744E0","-5,873781204E0",,,,,,,,,,,,,,,,,,,,,2024-06-05 09:56:32.666951870+02:00,bike,2024-06-05 09:56:17.973 UTC+02:00
14.79395187,"3,492324591E0","-1,048475075E1","-7,395018578E0",,,,,,,,,,,,,,,,,,,,,2024-06-05 09:56:32.766951870+02:00,bike,2024-06-05 09:56:17.973 UTC+02:00
14.89395187,"2,830111027E0","-6,775277138E0","-5,055436134E0",,,,,,,,,,,,,,,,,,,,,2024-06-05 09:56:32.866951870+02:00,bike,2024-06-05 09:56:17.973 UTC+02:00
14.99395187,"4,555934429E0","-8,806783676E0","-7,532007694E0",,,,,,,,,,,,,,,,,,,,,2024-06-05 09:56:32.966951870+02:00,bike,2024-06-05 09:56:17.973 UTC+02:00
15.09395187,"3,727419376E0","-8,525627136E0","-6,613163471E0",,,,,,,,,,,,,,,,,,,,,2024-06-05 09:56:33.066951870+02:00,bike,2024-06-05 09:56:17.973 UTC+02:00
15.19395187,"3,637688637E0","-5,702694416E0","-6,488138676E0",,,,,,,,,,,,,,,,,,,,,2024-06-05 09:56:33.166951870+02:00,bike,2024-06-05 09:56:17.973 UTC+02:00
15.29395187,"2,206780672E0","-3,602394581E0","-5,554937840E0",,,,,,,,,,,,,,,,,,,,,2024-06-05 09:56:33.266951870+02:00,bike,2024-06-05 09:56:17.973 UTC+02:00
15.39395187,"2,247458696E0","-1,902892232E0","-5,845067501E0",,,,,,,,,,,,,,,,,,,,,2024-06-05 09:56:33.366951870+02:00,bike,2024-06-05 09:56:17.973 UTC+02:00
15.49395187,"3,390629768E0","-4,804189682E0","-7,067201614E0",,,,,,,,,,,,,,,,,,,,,2024-06-05 09:56:33.466951870+02:00,bike,2024-06-05 09:56:17.973 UTC+02:00
15.59395187,"3,611965895E0","-6,958926678E0","-6,196812630E0",,,,,,,,,,,,,,,,,,,,,2024-06-05 09:56:33.566951870+02:00,bike,2024-06-05 09:56:17.973 UTC+02:00
15.69395187,"3,183052301E0","-8,969495773E0","-6,533003807E0",,,,,,,,,,,,,,,,,,,,,2024-06-05 09:56:33.666951870+02:00,bike,2024-06-05 09:56:17.973 UTC+02:00
15.79395187,"2,078764677E0","-1,153938675E1","-4,027120590E0",,,,,,,,,,,,,,,,,,,,,2024-06-05 09:56:33.766951870+02:00,bike,2024-06-05 09:56:17.973 UTC+02:00
15.89395187,"2,449652195E0","-9,261420250E0","-7,243672371E0",,,,,,,,,,,,,,,,,,,,,2024-06-05 09:56:33.866951870+02:00,bike,2024-06-05 09:56:17.973 UTC+02:00
15.99395187,"1,717448473E0","-7,611568928E0","-2,358126640E0",,,,,,,,,,,,,,,,,,,,,2024-06-05 09:56:33.966951870+02:00,bike,2024-06-05 09:56:17.973 UTC+02:00
16.09395187,"1,287338614E0","-5,749952793E0","-5,746363640E0",,,,,,,,,,,,,,,,,,,,,2024-06-05 09:56:34.066951870+02:00,bike,2024-06-05 09:56:17.973 UTC+02:00
16.19395187,"5,257629395E0","-8,140382767E0","-8,207381248E0",,,,,,,,,,,,,,,,,,,,,2024-06-05 09:56:34.166951870+02:00,bike,2024-06-05 09:56:17.973 UTC+02:00
16.29395187,"1,990828395E0","-5,251647472E0","-4,792225361E0",,,,,,,,,,,,,,,,,,,,,2024-06-05 09:56:34.266951870+02:00,bike,2024-06-05 09:56:17.973 UTC+02:00
16.39395187,"1,782054663E0","6,753742099E-1","-6,483353138E0",,,,,,,,,,,,,,,,,,,,,2024-06-05 09:56:34.366951870+02:00,bike,2024-06-05 09:56:17.973 UTC+02:00
16.49395187,"4,921437740E0","-1,042074203E0","-5,598606586E0",,,,,,,,,,,,,,,,,,,,,2024-06-05 09:56:34.466951870+02:00,bike,2024-06-05 09:56:17.973 UTC+02:00
16.59395187,"2,500499725E0","-7,305287361E0","-7,303493023E0",,,,,,,,,,,,,,,,,,,,,2024-06-05 09:56:34.566951870+02:00,bike,2024-06-05 09:56:17.973 UTC+02:00
16.69395187,"5,372485161E0","-8,241478920E0","-4,813162804E0",,,,,,,,,,,,,,,,,,,,,2024-06-05 09:56:34.666951870+02:00,bike,2024-06-05 09:56:17.973 UTC+02:00
16.79395187,"2,816950560E0","-1,099741268E1","-8,590831757E0",,,,,,,,,,,,,,,,,,,,,2024-06-05 09:56:34.766951870+02:00,bike,2024-06-05 09:56:17.973 UTC+02:00
16.89395187,"1,759921074E0","-4,521238327E0","1,951346874E0",,,,,,,,,,,,,,,,,,,,,2024-06-05 09:56:34.866951870+02:00,bike,2024-06-05 09:56:17.973 UTC+02:00
16.99395187,"4,330410957E0","-8,596813202E0","-7,564310551E0",,,,,,,,,,,,,,,,,,,,,2024-06-05 09:56:34.966951870+02:00,bike,2024-06-05 09:56:17.973 UTC+02:00
17.09395187,"4,941178799E0","-7,554141045E0","-5,763711452E0",,,,,,,,,,,,,,,,,,,,,2024-06-05 09:56:35.066951870+02:00,bike,2024-06-05 09:56:17.973 UTC+02:00
17.19395187,"4,051048756E0","-5,120640278E0","-4,643272400E0",,,,,,,,,,,,,,,,,,,,,2024-06-05 09:56:35.166951870+02:00,bike,2024-06-05 09:56:17.973 UTC+02:00
17.29395187,"1,657627940E0","-1,843669891E0","-3,740580082E0",,,,,,,,,,,,,,,,,,,,,2024-06-05 09:56:35.266951870+02:00,bike,2024-06-05 09:56:17.973 UTC+02:00
17.39395187,"2,882753134E0","-2,447259426E0","-4,749752998E0",,,,,,,,,,,,,,,,,,,,,2024-06-05 09:56:35.366951870+02:00,bike,2024-06-05 09:56:17.973 UTC+02:00
17.49395187,"1,540977836E0","-4,336990833E0","-4,748556614E0",,,,,,,,,,,,,,,,,,,,,2024-06-05 09:56:35.466951870+02:00,bike,2024-06-05 09:56:17.973 UTC+02:00
17.59395187,"4,453042984E0","-5,043471813E0","-5,514259815E0",,,,,,,,,,,,,,,,,,,,,2024-06-05 09:56:35.566951870+02:00,bike,2024-06-05 09:56:17.973 UTC+02:00
17.69395187,"1,936989903E0","-1,118764210E1","-7,126423836E0",,,,,,,,,,,,,,,,,,,,,2024-06-05 09:56:35.666951870+02:00,bike,2024-06-05 09:56:17.973 UTC+02:00
17.79395187,"3,452843189E0","-7,995616913E0","-5,848058701E0",,,,,,,,,,,,,,,,,,,,,2024-06-05 09:56:35.766951870+02:00,bike,2024-06-05 09:56:17.973 UTC+02:00
17.89395187,"3,382254839E0","-1,041356373E1","-6,053243160E0",,,,,,,,,,,,,,,,,,,,,2024-06-05 09:56:35.866951870+02:00,bike,2024-06-05 09:56:17.973 UTC+02:00
17.99395187,"4,253840446E0","-6,684948444E0","-6,168696880E0",,,,,,,,,,,,,,,,,,,,,2024-06-05 09:56:35.966951870+02:00,bike,2024-06-05 09:56:17.973 UTC+02:00
18.09395187,"4,259822369E0","-6,588038921E0","-5,556134224E0",,,,,,,,,,,,,,,,,,,,,2024-06-05 09:56:36.066951870+02:00,bike,2024-06-05 09:56:17.973 UTC+02:00
18.19395187,"2,102692842E0","-3,396013498E0","-5,355136871E0",,,,,,,,,,,,,,,,,,,,,2024-06-05 09:56:36.166951870+02:00,bike,2024-06-05 09:56:17.973 UTC+02:00
18.29395187,"1,044467092E0","-6,017948985E-1","-4,604389191E0",,,,,,,,,,,,,,,,,,,,,2024-06-05 09:56:36.266951870+02:00,bike,2024-06-05 09:56:17.973 UTC+02:00
18.39395187,"4,075575352E0","-5,417350292E0","-5,130211830E0",,,,,,,,,,,,,,,,,,,,,2024-06-05 09:56:36.366951870+02:00,bike,2024-06-05 09:56:17.973 UTC+02:00
18.49395187,"3,992424488E0","-7,482356548E0","-5,206781864E0",,,,,,,,,,,,,,,,,,,,,2024-06-05 09:56:36.466951870+02:00,bike,2024-06-05 09:56:17.973 UTC+02:00
18.59395187,"4,048057556E0","-9,967901230E0","-5,687739372E0",,,,,,,,,,,,,,,,,,,,,2024-06-05 09:56:36.566951870+02:00,bike,2024-06-05 09:56:17.973 UTC+02:00
18.69395187,"3,391227961E0","-9,723235130E0","-6,494719028E0",,,,,,,,,,,,,,,,,,,,,2024-06-05 09:56:36.666951870+02:00,bike,2024-06-05 09:56:17.973 UTC+02:00
18.79395187,"3,173480988E0","-8,666803360E0","-5,443671703E0",,,,,,,,,,,,,,,,,,,,,2024-06-05 09:56:36.766951870+02:00,bike,2024-06-05 09:56:17.973 UTC+02:00
18.89395187,"4,511068821E0","-8,658429146E0","-4,969892502E0",,,,,,,,,,,,,,,,,,,,,2024-06-05 09:56:36.866951870+02:00,bike,2024-06-05 09:56:17.973 UTC+02:00
18.99395187,"3,894318819E0","-6,067001820E0","-5,238486767E0",,,,,,,,,,,,,,,,,,,,,2024-06-05 09:56:36.966951870+02:00,bike,2024-06-05 09:56:17.973 UTC+02:00
19.09395187,"3,272783279E0","-4,709074974E0","-6,422336102E0",,,,,,,,,,,,,,,,,,,,,2024-06-05 09:56:37.066951870+02:00,bike,2024-06-05 09:56:17.973 UTC+02:00
19.19395187,"1,311266780E0","-1,283151150E0","-4,385445595E0",,,,,,,,,,,,,,,,,,,,,2024-06-05 09:56:37.166951870+02:00,bike,2024-06-05 09:56:17.973 UTC+02:00
19.29395187,"2,205584288E0","-1,869392633E0","-5,475974560E0",,,,,,,,,,,,,,,,,,,,,2024-06-05 09:56:37.266951870+02:00,bike,2024-06-05 09:56:17.973 UTC+02:00
19.39395187,"3,108276606E0","-7,170093060E0","-5,057230473E0",,,,,,,,,,,,,,,,,,,,,2024-06-05 09:56:37.366951870+02:00,bike,2024-06-05 09:56:17.973 UTC+02:00
19.49395187,"3,841676712E0","-9,868598938E0","-5,494519234E0",,,,,,,,,,,,,,,,,,,,,2024-06-05 09:56:37.466951870+02:00,bike,2024-06-05 09:56:17.973 UTC+02:00
19.59395187,"2,452044964E0","-9,432506561E0","-6,201598167E0",,,,,,,,,,,,,,,,,,,,,2024-06-05 09:56:37.566951870+02:00,bike,2024-06-05 09:56:17.973 UTC+02:00
19.69395187,"3,672982693E0","-8,132007599E0","-5,831906796E0",,,,,,,,,,,,,,,,,,,,,2024-06-05 09:56:37.666951870+02:00,bike,2024-06-05 09:56:17.973 UTC+02:00
19.79395187,"3,236890793E0","-9,901499748E0","-5,145166874E0",,,,,,,,,,,,,,,,,,,,,2024-06-05 09:56:37.766951870+02:00,bike,2024-06-05 09:56:17.973 UTC+02:00
19.89395187,"1,805982947E0","-7,292127132E0","-3,960719585E0",,,,,,,,,,,,,,,,,,,,,2024-06-05 09:56:37.866951870+02:00,bike,2024-06-05 09:56:17.973 UTC+02:00
19.99395187,"3,579662561E0","-7,564908981E0","-5,711667538E0",,,,,,,,,,,,,,,,,,,,,2024-06-05 09:56:37.966951870+02:00,bike,2024-06-05 09:56:17.973 UTC+02:00
20.09395187,"4,566103935E0","-6,971488953E0","-5,689534187E0",,,,,,,,,,,,,,,,,,,,,2024-06-05 09:56:38.066951870+02:00,bike,2024-06-05 09:56:17.973 UTC+02:00
20.19395187,"3,907479286E0","-7,889734268E0","-5,782854080E0",,,,,,,,,,,,,,,,,,,,,2024-06-05 09:56:38.166951870+02:00,bike,2024-06-05 09:56:17.973 UTC+02:00
20.29395187,"4,022335052E0","-3,445664644E0","-5,947958946E0",,,,,,,,,,,,,,,,,,,,,2024-06-05 09:56:38.266951870+02:00,bike,2024-06-05 09:56:17.973 UTC+02:00
20.39395187,"3,829712629E0","-3,999603033E0","-5,710471153E0",,,,,,,,,,,,,,,,,,,,,2024-06-05 09:56:38.366951870+02:00,bike,2024-06-05 09:56:17.973 UTC+02:00
20.49395187,"7,001399040E0","-9,403194427E0","-9,056235313E0",,,,,,,,,,,,,,,,,,,,,2024-06-05 09:56:38.466951870+02:00,bike,2024-06-05 09:56:17.973 UTC+02:00
20.59395187,"1,637288928E0","-3,710669756E0","-4,494917393E0",,,,,,,,,,,,,,,,,,,,,2024-06-05 09:56:38.566951870+02:00,bike,2024-06-05 09:56:17.973 UTC+02:00
20.69395187,"2,308475733E0","-1,092921734E0","-5,668596745E0",,,,,,,,,,,,,,,,,,,,,2024-06-05 09:56:38.666951870+02:00,bike,2024-06-05 09:56:17.973 UTC+02:00
20.79395187,"3,424129248E0","-1,506281853E0","-5,760122299E0",,,,,,,,,,,,,,,,,,,,,2024-06-05 09:56:38.766951870+02:00,bike,2024-06-05 09:56:17.973 UTC+02:00
20.89395187,"4,836492538E0","-5,318048477E0","-8,118846893E0",,,,,,,,,,,,,,,,,,,,,2024-06-05 09:56:38.866951870+02:00,bike,2024-06-05 09:56:17.973 UTC+02:00
20.99395187,"3,931407690E0","-1,177268696E1","-6,861418724E0",,,,,,,,,,,,,,,,,,,,,2024-06-05 09:56:38.966951870+02:00,bike,2024-06-05 09:56:17.973 UTC+02:00
21.09395187,"3,254238844E0","-9,344570160E0","-5,632704735E0",,,,,,,,,,,,,,,,,,,,,2024-06-05 09:56:39.066951870+02:00,bike,2024-06-05 09:56:17.973 UTC+02:00
21.19395187,"3,730410576E0","-8,534002304E0","-2,906681299E0",,,,,,,,,,,,,,,,,,,,,2024-06-05 09:56:39.166951870+02:00,bike,2024-06-05 09:56:17.973 UTC+02:00
21.29395187,"4,385445595E0","-8,927620888E0","-3,851846218E0",,,,,,,,,,,,,,,,,,,,,2024-06-05 09:56:39.266951870+02:00,bike,2024-06-05 09:56:17.973 UTC+02:00
21.39395187,"5,609972477E0","-7,612166882E0","-5,667400360E0",,,,,,,,,,,,,,,,,,,,,2024-06-05 09:56:39.366951870+02:00,bike,2024-06-05 09:56:17.973 UTC+02:00
21.49395187,"4,098905087E0","-6,138188362E0","-5,549553871E0",,,,,,,,,,,,,,,,,,,,,2024-06-05 09:56:39.466951870+02:00,bike,2024-06-05 09:56:17.973 UTC+02:00
21.59395187,"3,404986620E0","-5,496313572E0","-5,905486107E0",,,,,,,,,,,,,,,,,,,,,2024-06-05 09:56:39.566951870+02:00,bike,2024-06-05 09:56:17.973 UTC+02:00
21.69395187,"2,642872572E0","-2,464009047E0","-5,934798241E0",,,,,,,,,,,,,,,,,,,,,2024-06-05 09:56:39.666951870+02:00,bike,2024-06-05 09:56:17.973 UTC+02:00
21.79395187,"2,485544443E0","-3,019742250E0","-6,027520180E0",,,,,,,,,,,,,,,,,,,,,2024-06-05 09:56:39.766951870+02:00,bike,2024-06-05 09:56:17.973 UTC+02:00
21.89395187,"3,234498024E0","-2,892922640E0","-5,441278458E0",,,,,,,,,,,,,,,,,,,,,2024-06-05 09:56:39.866951870+02:00,bike,2024-06-05 09:56:17.973 UTC+02:00
21.99395187,"4,738387108E0","-5,245067120E0","-6,967301369E0",,,,,,,,,,,,,,,,,,,,,2024-06-05 09:56:39.966951870+02:00,bike,2024-06-05 09:56:17.973 UTC+02:00
22.09395187,"3,334398270E0","-9,099904060E0","-4,998008251E0",,,,,,,,,,,,,,,,,,,,,2024-06-05 09:56:40.066951870+02:00,bike,2024-06-05 09:56:17.973 UTC+02:00
22.19395187,"3,189034462E0","-1,104885864E1","-6,142375946E0",,,,,,,,,,,,,,,,,,,,,2024-06-05 09:56:40.166951870+02:00,bike,2024-06-05 09:56:17.973 UTC+02:00
22.29395187,"3,034099102E0","-8,386244774E0","-4,439882278E0",,,,,,,,,,,,,,,,,,,,,2024-06-05 09:56:40.266951870+02:00,bike,2024-06-05 09:56:17.973 UTC+02:00
22.39395187,"3,228515863E0","-1,069711399E1","-6,226722717E0",,,,,,,,,,,,,,,,,,,,,2024-06-05 09:56:40.366951870+02:00,bike,2024-06-05 09:56:17.973 UTC+02:00
22.49395187,"5,837290764E0","-9,175876617E0","-7,130611420E0",,,,,,,,,,,,,,,,,,,,,2024-06-05 09:56:40.466951870+02:00,bike,2024-06-05 09:56:17.973 UTC+02:00
22.59395187,"2,738585472E0","-7,473383427E0","-4,970490932E0",,,,,,,,,,,,,,,,,,,,,2024-06-05 09:56:40.566951870+02:00,bike,2024-06-05 09:56:17.973 UTC+02:00
22.69395187,"6,395416737E0","-6,841678143E0","-8,385646820E0",,,,,,,,,,,,,,,,,,,,,2024-06-05 09:56:40.666951870+02:00,bike,2024-06-05 09:56:17.973 UTC+02:00
22.79395187,"2,033899166E-2","-1,859223247E0","-2,460419893E0",,,,,,,,,,,,,,,,,,,,,2024-06-05 09:56:40.766951870+02:00,bike,2024-06-05 09:56:17.973 UTC+02:00
22.89395187,"3,548556089E0","-1,767697692E0","-5,906682491E0",,,,,,,,,,,,,,,,,,,,,2024-06-05 09:56:40.866951870+02:00,bike,2024-06-05 09:56:17.973 UTC+02:00
22.99395187,"5,654240131E0","-5,980860233E0","-7,176074982E0",,,,,,,,,,,,,,,,,,,,,2024-06-05 09:56:40.966951870+02:00,bike,2024-06-05 09:56:17.973 UTC+02:00
23.09395187,"2,611167669E0","-5,203192711E0","-5,280361176E0",,,,,,,,,,,,,,,,,,,,,2024-06-05 09:56:41.066951870+02:00,bike,2024-06-05 09:56:17.973 UTC+02:00
23.19395187,"3,829712629E0","-8,059624672E0","-2,636292458E0",,,,,,,,,,,,,,,,,,,,,2024-06-05 09:56:41.166951870+02:00,bike,2024-06-05 09:56:17.973 UTC+02:00
23.29395187,"2,700300455E0","-1,111226845E1","-5,181657314E0",,,,,,,,,,,,,,,,,,,,,2024-06-05 09:56:41.266951870+02:00,bike,2024-06-05 09:56:17.973 UTC+02:00
23.39395187,"3,150151014E0","-7,834699631E0","-3,602992773E0",,,,,,,,,,,,,,,,,,,,,2024-06-05 09:56:41.366951870+02:00,bike,2024-06-05 09:56:17.973 UTC+02:00
23.49395187,"1,431506157E0","-6,312864304E0","-2,372483730E0",,,,,,,,,,,,,,,,,,,,,2024-06-05 09:56:41.466951870+02:00,bike,2024-06-05 09:56:17.973 UTC+02:00
23.59395187,"5,260022163E0","-1,036331463E1","-8,754141808E0",,,,,,,,,,,,,,,,,,,,,2024-06-05 09:56:41.566951870+02:00,bike,2024-06-05 09:56:17.973 UTC+02:00
23.69395187,"4,659423828E0","-7,192226887E0","-5,620740414E0",,,,,,,,,,,,,,,,,,,,,2024-06-05 09:56:41.666951870+02:00,bike,2024-06-05 09:56:17.973 UTC+02:00
23.79395187,"3,357728481E0","-6,673582554E0","-6,086144447E0",,,,,,,,,,,,,,,,,,,,,2024-06-05 09:56:41.766951870+02:00,bike,2024-06-05 09:56:17.973 UTC+02:00
23.89395187,"3,270988464E0","-5,524429321E0","-7,097710133E0",,,,,,,,,,,,,,,,,,,,,2024-06-05 09:56:41.866951870+02:00,bike,2024-06-05 09:56:17.973 UTC+02:00
23.99395187,"1,985444546E0","1,333998591E-1","-6,037091732E0",,,,,,,,,,,,,,,,,,,,,2024-06-05 09:56:41.966951870+02:00,bike,2024-06-05 09:56:17.973 UTC+02:00
24.09395187,"5,901299000E0","-4,348955154E0","-6,761518478E0",,,,,,,,,,,,,,,,,,,,,2024-06-05 09:56:42.066951870+02:00,bike,2024-06-05 09:56:17.973 UTC+02:00
24.19395187,"4,978865623E0","-5,922235966E0","-5,120042324E0",,,,,,,,,,,,,,,,,,,,,2024-06-05 09:56:42.166951870+02:00,bike,2024-06-05 09:56:17.973 UTC+02:00
24.29395187,"2,849851847E0","-8,910273552E0","-6,398407936E0",,,,,,,,,,,,,,,,,,,,,2024-06-05 09:56:42.266951870+02:00,bike,2024-06-05 09:56:17.973 UTC+02:00
24.39395187,"3,823132277E0","-1,159920788E1","-7,646862984E0",,,,,,,,,,,,,,,,,,,,,2024-06-05 09:56:42.366951870+02:00,bike,2024-06-05 09:56:17.973 UTC+02:00
24.49395187,"4,783850670E0","-6,548557281E0","-5,495117188E0",,,,,,,,,,,,,,,,,,,,,2024-06-05 09:56:42.466951870+02:00,bike,2024-06-05 09:56:17.973 UTC+02:00
24.59395187,"6,216553211E0","-9,332606316E0","-5,840879917E0",,,,,,,,,,,,,,,,,,,,,2024-06-05 09:56:42.566951870+02:00,bike,2024-06-05 09:56:17.973 UTC+02:00
24.69395187,"4,455435753E0","-8,503493309E0","-4,406383038E0",,,,,,,,,,,,,,,,,,,,,2024-06-05 09:56:42.666951870+02:00,bike,2024-06-05 09:56:17.973 UTC+02:00
24.79395187,"3,568296671E0","-4,196412563E0","-5,946762562E0",,,,,,,,,,,,,,,,,,,,,2024-06-05 09:56:42.766951870+02:00,bike,2024-06-05 09:56:17.973 UTC+02:00
24.89395187,"4,820939541E0","-4,340580463E0","-7,734799385E0",,,,,,,,,,,,,,,,,,,,,2024-06-05 09:56:42.866951870+02:00,bike,2024-06-05 09:56:17.973 UTC+02:00
24.99395187,"2,293520451E0","-2,629712105E0","-5,002793789E0",,,,,,,,,,,,,,,,,,,,,2024-06-05 09:56:42.966951870+02:00,bike,2024-06-05 09:56:17.973 UTC+02:00
25.09395187,"4,768297195E0","-4,880161762E0","-7,250850677E0",,,,,,,,,,,,,,,,,,,,,2024-06-05 09:56:43.066951870+02:00,bike,2024-06-05 09:56:17.973 UTC+02:00
25.19395187,"3,884149313E0","-7,748558044E0","-6,199205399E0",,,,,,,,,,,,,,,,,,,,,2024-06-05 09:56:43.166951870+02:00,bike,2024-06-05 09:56:17.973 UTC+02:00
25.29395187,"6,029314995E0","-1,166620636E1","-4,697709084E0",,,,,,,,,,,,,,,,,,,,,2024-06-05 09:56:43.266951870+02:00,bike,2024-06-05 09:56:17.973 UTC+02:00
25.39395187,"4,945964336E0","-1,052662468E1","-8,636893272E0",,,,,,,,,,,,,,,,,,,,,2024-06-05 09:56:43.366951870+02:00,bike,2024-06-05 09:56:17.973 UTC+02:00
25.49395187,"6,394818306E0","-7,629515171E0","-1,080120182E1",,,,,,,,,,,,,,,,,,,,,2024-06-05 09:56:43.466951870+02:00,bike,2024-06-05 09:56:17.973 UTC+02:00
25.59395187,"3,544966698E0","-9,768698692E0","-3,576671600E0",,,,,,,,,,,,,,,,,,,,,2024-06-05 09:56:43.566951870+02:00,bike,2024-06-05 09:56:17.973 UTC+02:00
25.69395187,"3,610171080E0","-8,958129883E0","-5,834897995E0",,,,,,,,,,,,,,,,,,,,,2024-06-05 09:56:43.666951870+02:00,bike,2024-06-05 09:56:17.973 UTC+02:00
25.79395187,"4,996811867E0","-2,226521492E0","-2,585444927E0",,,,,,,,,,,,,,,,,,,,,2024-06-05 09:56:43.766951870+02:00,bike,2024-06-05 09:56:17.973 UTC+02:00
25.89395187,"1,771885157E0","-2,002792597E0","-4,156332970E0",,,,,,,,,,,,,,,,,,,,,2024-06-05 09:56:43.866951870+02:00,bike,2024-06-05 09:56:17.973 UTC+02:00
25.99395187,"6,937391281E0","-9,306883812E0","-7,895716667E0",,,,,,,,,,,,,,,,,,,,,2024-06-05 09:56:43.966951870+02:00,bike,2024-06-05 09:56:17.973 UTC+02:00
26.09395187,"9,517452121E-1","-6,879365444E-2","-4,640281200E0",,,,,,,,,,,,,,,,,,,,,2024-06-05 09:56:44.066951870+02:00,bike,2024-06-05 09:56:17.973 UTC+02:00
26.19395187,"3,326023579E0","-6,951149940E0","-3,778266907E0",,,,,,,,,,,,,,,,,,,,,2024-06-05 09:56:44.166951870+02:00,bike,2024-06-05 09:56:17.973 UTC+02:00
26.29395187,"2,995215654E0","-1,391605854E1","-1,009172916E1",,,,,,,,,,,,,,,,,,,,,2024-06-05 09:56:44.266951870+02:00,bike,2024-06-05 09:56:17.973 UTC+02:00
26.39395187,"2,298306227E0","-1,601875114E1","-5,533402443E0",,,,,,,,,,,,,,,,,,,,,2024-06-05 09:56:44.366951870+02:00,bike,2024-06-05 09:56:17.973 UTC+02:00
26.49395187,"1,674377680E0","-1,021017456E1","-3,212962627E0",,,,,,,,,,,,,,,,,,,,,2024-06-05 09:56:44.466951870+02:00,bike,2024-06-05 09:56:17.973 UTC+02:00
26.59395187,"4,340580463E0","-5,900700569E0","-4,448257446E0",,,,,,,,,,,,,,,,,,,,,2024-06-05 09:56:44.566951870+02:00,bike,2024-06-05 09:56:17.973 UTC+02:00
26.69395187,"3,923630953E0","-4,776672363E0","-7,992625713E0",,,,,,,,,,,,,,,,,,,,,2024-06-05 09:56:44.666951870+02:00,bike,2024-06-05 09:56:17.973 UTC+02:00
26.79395187,"4,125824451E0","-3,738785267E0","-4,312464714E0",,,,,,,,,,,,,,,,,,,,,2024-06-05 09:56:44.766951870+02:00,bike,2024-06-05 09:56:17.973 UTC+02:00
26.89395187,"2,009970903E0","-7,902296543E0","-1,817348838E0",,,,,,,,,,,,,,,,,,,,,2024-06-05 09:56:44.866951870+02:00,bike,2024-06-05 09:56:17.973 UTC+02:00
26.99395187,"4,255036831E0","-4,888536453E0","-2,187039852E0",,,,,,,,,,,,,,,,,,,,,2024-06-05 09:56:44.966951870+02:00,bike,2024-06-05 09:56:17.973 UTC+02:00
27.09395187,"6,964908600E0","-6,491129398E0","2,041675806E0",,,,,,,,,,,,,,,,,,,,,2024-06-05 09:56:45.066951870+02:00,bike,2024-06-05 09:56:17.973 UTC+02:00
27.19395187,"5,572285652E0","-6,656832695E0","-6,058627129E0",,,,,,,,,,,,,,,,,,,,,2024-06-05 09:56:45.166951870+02:00,bike,2024-06-05 09:56:17.973 UTC+02:00
27.29395187,"3,744767427E0","-8,639883995E0","7,477570772E-1",,,,,,,,,,,,,,,,,,,,,2024-06-05 09:56:45.266951870+02:00,bike,2024-06-05 09:56:17.973 UTC+02:00
27.39395187,"3,018545866E0","-1,170389366E1","-3,664009571E0",,,,,,,,,,,,,,,,,,,,,2024-06-05 09:56:45.366951870+02:00,bike,2024-06-05 09:56:17.973 UTC+02:00
27.49395187,"1,554138303E0","-9,481559753E0","-3,898506403E0",,,,,,,,,,,,,,,,,,,,,2024-06-05 09:56:45.466951870+02:00,bike,2024-06-05 09:56:17.973 UTC+02:00
27.59395187,"1,006181908E1","-1,553958893E1","-7,845467091E0",,,,,,,,,,,,,,,,,,,,,2024-06-05 09:56:45.566951870+02:00,bike,2024-06-05 09:56:17.973 UTC+02:00
27.69395187,"2,240878344E0","-4,107280254E0","-4,067798331E-2",,,,,,,,,,,,,,,,,,,,,2024-06-05 09:56:45.666951870+02:00,bike,2024-06-05 09:56:17.973 UTC+02:00
27.79395187,"4,482953072E0","-5,215754986E0","-5,258825779E0",,,,,,,,,,,,,,,,,,,,,2024-06-05 09:56:45.766951870+02:00,bike,2024-06-05 09:56:17.973 UTC+02:00
27.89395187,"2,810370207E0","-9,314061999E-1","-6,083751678E0",,,,,,,,,,,,,,,,,,,,,2024-06-05 09:56:45.866951870+02:00,bike,2024-06-05 09:56:17.973 UTC+02:00
27.99395187,"-1,046859920E-1","-3,072384357E0","-6,380461693E0",,,,,,,,,,,,,,,,,,,,,2024-06-05 09:56:45.966951870+02:00,bike,2024-06-05 09:56:17.973 UTC+02:00
28.09395187,"3,620340586E0","-9,088538170E0","-8,544769287E0",,,,,,,,,,,,,,,,,,,,,2024-06-05 09:56:46.066951870+02:00,bike,2024-06-05 09:56:17.973 UTC+02:00
28.19395187,"2,954537868E0","-6,823731899E0","3,322434187E0",,,,,,,,,,,,,,,,,,,,,2024-06-05 09:56:46.166951870+02:00,bike,2024-06-05 09:56:17.973 UTC+02:00
28.29395187,"2,863610506E0","-6,677769661E0","-7,524828911E0",,,,,,,,,,,,,,,,,,,,,2024-06-05 09:56:46.266951870+02:00,bike,2024-06-05 09:56:17.973 UTC+02:00
28.39395187,"1,741376638E0","-6,538387775E0","-1,626521230E0",,,,,,,,,,,,,,,,,,,,,2024-06-05 09:56:46.366951870+02:00,bike,2024-06-05 09:56:17.973 UTC+02:00
28.49395187,"1,933400750E0","-7,746763229E0","-3,385245800E0",,,,,,,,,,,,,,,,,,,,,2024-06-05 09:56:46.466951870+02:00,bike,2024-06-05 09:56:17.973 UTC+02:00
28.59395187,"1,933400750E0","-7,746763229E0","-3,385245800E0",,,,,,,,,,,,,,,,,,,,,2024-06-05 09:56:46.566951870+02:00,bike,2024-06-05 09:56:17.973 UTC+02:00
28.69395187,"6,069993019E0","-6,946363926E0","-4,524827480E0",,,,,,,,,,,,,,,,,,,,,2024-06-05 09:56:46.666951870+02:00,bike,2024-06-05 09:56:17.973 UTC+02:00
28.79395187,"2,413161755E0","-5,197809219E0","-4,738985062E0",,,,,,,,,,,,,,,,,,,,,2024-06-05 09:56:46.766951870+02:00,bike,2024-06-05 09:56:17.973 UTC+02:00
28.89395187,"3,036491871E0","-4,003790379E0","-5,013561726E0",,,,,,,,,,,,,,,,,,,,,2024-06-05 09:56:46.866951870+02:00,bike,2024-06-05 09:56:17.973 UTC+02:00
28.99395187,"2,754138947E0","-3,575475216E0","-5,492724419E0",,,,,,,,,,,,,,,,,,,,,2024-06-05 09:56:46.966951870+02:00,bike,2024-06-05 09:56:17.973 UTC+02:00
29.09395187,"4,226323128E0","-5,515456200E0","-6,555736065E0",,,,,,,,,,,,,,,,,,,,,2024-06-05 09:56:47.066951870+02:00,bike,2024-06-05 09:56:17.973 UTC+02:00
29.19395187,"3,323630571E0","-8,712266922E0","-3,999603033E0",,,,,,,,,,,,,,,,,,,,,2024-06-05 09:56:47.166951870+02:00,bike,2024-06-05 09:56:17.973 UTC+02:00
29.29395187,"4,308875561E0","-1,264965725E1","-5,405984402E0",,,,,,,,,,,,,,,,,,,,,2024-06-05 09:56:47.266951870+02:00,bike,2024-06-05 09:56:17.973 UTC+02:00
29.39395187,"3,027518749E0","-9,445069313E0","-5,322834015E0",,,,,,,,,,,,,,,,,,,,,2024-06-05 09:56:47.366951870+02:00,bike,2024-06-05 09:56:17.973 UTC+02:00
29.49395187,"2,914458036E0","-7,070192814E0","-3,760320902E0",,,,,,,,,,,,,,,,,,,,,2024-06-05 09:56:47.466951870+02:00,bike,2024-06-05 09:56:17.973 UTC+02:00
29.59395187,"5,744568825E0","-9,439086914E0","-6,660421848E0",,,,,,,,,,,,,,,,,,,,,2024-06-05 09:56:47.566951870+02:00,bike,2024-06-05 09:56:17.973 UTC+02:00
29.69395187,"5,241477966E0","-7,638488293E0","-5,483152866E0",,,,,,,,,,,,,,,,,,,,,2024-06-05 09:56:47.666951870+02:00,bike,2024-06-05 09:56:17.973 UTC+02:00
29.79395187,"1,874178290E0","-6,185446382E-1","-4,218546391E0",,,,,,,,,,,,,,,,,,,,,2024-06-05 09:56:47.766951870+02:00,bike,2024-06-05 09:56:17.973 UTC+02:00
29.89395187,"3,360121250E0","-2,103291035E0","-5,867799282E0",,,,,,,,,,,,,,,,,,,,,2024-06-05 09:56:47.866951870+02:00,bike,2024-06-05 09:56:17.973 UTC+02:00
29.99395187,"3,897907972E0","-4,563112736E0","-6,541378975E0",,,,,,,,,,,,,,,,,,,,,2024-06-05 09:56:47.966951870+02:00,bike,2024-06-05 09:56:17.973 UTC+02:00
30.09395187,"3,386442184E0","-6,110671043E0","-6,470790863E0",,,,,,,,,,,,,,,,,,,,,2024-06-05 09:56:48.066951870+02:00,bike,2024-06-05 09:56:17.973 UTC+02:00
30.19395187,"5,901299000E0","-1,181037426E1","-4,352544308E0",,,,,,,,,,,,,,,,,,,,,2024-06-05 09:56:48.166951870+02:00,bike,2024-06-05 09:56:17.973 UTC+02:00
30.29395187,"4,800002098E0","-1,174576855E1","-5,891129494E0",,,,,,,,,,,,,,,,,,,,,2024-06-05 09:56:48.266951870+02:00,bike,2024-06-05 09:56:17.973 UTC+02:00
30.39395187,"3,574278831E0","-7,201797962E0","-4,716253281E0",,,,,,,,,,,,,,,,,,,,,2024-06-05 09:56:48.366951870+02:00,bike,2024-06-05 09:56:17.973 UTC+02:00
30.49395187,"4,119842529E0","-1,017607689E1","-3,087937593E0",,,,,,,,,,,,,,,,,,,,,2024-06-05 09:56:48.466951870+02:00,bike,2024-06-05 09:56:17.973 UTC+02:00
30.59395187,"4,342374802E0","-6,744768620E0","-3,674777269E0",,,,,,,,,,,,,,,,,,,,,2024-06-05 09:56:48.566951870+02:00,bike,2024-06-05 09:56:17.973 UTC+02:00
30.69395187,"3,000001431E0","-4,625924587E0","-3,887140274E0",,,,,,,,,,,,,,,,,,,,,2024-06-05 09:56:48.666951870+02:00,bike,2024-06-05 09:56:17.973 UTC+02:00
30.79395187,"3,266801119E0","-4,176073551E0","-6,294320107E0",,,,,,,,,,,,,,,,,,,,,2024-06-05 09:56:48.766951870+02:00,bike,2024-06-05 09:56:17.973 UTC+02:00
30.89395187,"7,860422134E-1","-1,070788130E-1","-3,687937975E0",,,,,,,,,,,,,,,,,,,,,2024-06-05 09:56:48.866951870+02:00,bike,2024-06-05 09:56:17.973 UTC+02:00
30.99395187,"4,917250633E0","-6,416952133E0","-7,368099213E0",,,,,,,,,,,,,,,,,,,,,2024-06-05 09:56:48.966951870+02:00,bike,2024-06-05 09:56:17.973 UTC+02:00
31.09395187,"4,904089928E0","-9,914062500E0","-6,395416737E0",,,,,,,,,,,,,,,,,,,,,2024-06-05 09:56:49.066951870+02:00,bike,2024-06-05 09:56:17.973 UTC+02:00
31.19395187,"4,415954113E0","-9,658030510E0","-4,027718544E0",,,,,,,,,,,,,,,,,,,,,2024-06-05 09:56:49.166951870+02:00,bike,2024-06-05 09:56:17.973 UTC+02:00
31.29395187,"5,923432350E0","-1,162792206E1","-5,947958946E0",,,,,,,,,,,,,,,,,,,,,2024-06-05 09:56:49.266951870+02:00,bike,2024-06-05 09:56:17.973 UTC+02:00
31.39395187,"4,145565033E0","-9,232706070E0","-3,448057413E0",,,,,,,,,,,,,,,,,,,,,2024-06-05 09:56:49.366951870+02:00,bike,2024-06-05 09:56:17.973 UTC+02:00
31.49395187,"5,652445316E0","-7,808976650E0","-5,623731613E0",,,,,,,,,,,,,,,,,,,,,2024-06-05 09:56:49.466951870+02:00,bike,2024-06-05 09:56:17.973 UTC+02:00
31.59395187,"3,930211306E0","-6,915257454E0","-5,499902725E0",,,,,,,,,,,,,,,,,,,,,2024-06-05 09:56:49.566951870+02:00,bike,2024-06-05 09:56:17.973 UTC+02:00
31.69395187,"3,187239647E0","-3,867997885E0","-5,645267010E0",,,,,,,,,,,,,,,,,,,,,2024-06-05 09:56:49.666951870+02:00,bike,2024-06-05 09:56:17.973 UTC+02:00
31.79395187,"2,441277266E0","-1,420140266E0","-4,401597023E0",,,,,,,,,,,,,,,,,,,,,2024-06-05 09:56:49.766951870+02:00,bike,2024-06-05 09:56:17.973 UTC+02:00
31.89395187,"4,433900356E0","-3,230908871E0","-5,496912003E0",,,,,,,,,,,,,,,,,,,,,2024-06-05 09:56:49.866951870+02:00,bike,2024-06-05 09:56:17.973 UTC+02:00
31.99395187,"4,768297195E0","-5,369493961E0","-6,023332596E0",,,,,,,,,,,,,,,,,,,,,2024-06-05 09:56:49.966951870+02:00,bike,2024-06-05 09:56:17.973 UTC+02:00
32.09395187,"5,821139336E0","-9,314660072E0","-6,198606968E0",,,,,,,,,,,,,,,,,,,,,2024-06-05 09:56:50.066951870+02:00,bike,2024-06-05 09:56:17.973 UTC+02:00
32.19395187,"4,133002758E0","-1,008395290E1","-5,785246849E0",,,,,,,,,,,,,,,,,,,,,2024-06-05 09:56:50.166951870+02:00,bike,2024-06-05 09:56:17.973 UTC+02:00
32.29395187,"4,588835716E0","-8,199604988E0","-3,747160196E0",,,,,,,,,,,,,,,,,,,,,2024-06-05 09:56:50.266951870+02:00,bike,2024-06-05 09:56:17.973 UTC+02:00
32.39395187,"5,203791142E0","-1,119182968E1","-4,406980991E0",,,,,,,,,,,,,,,,,,,,,2024-06-05 09:56:50.366951870+02:00,bike,2024-06-05 09:56:17.973 UTC+02:00
32.49395187,"4,338785648E0","-7,432705402E0","-4,690530777E0",,,,,,,,,,,,,,,,,,,,,2024-06-05 09:56:50.466951870+02:00,bike,2024-06-05 09:56:17.973 UTC+02:00
32.59395187,"4,350749969E0","-5,577669621E0","-5,835496426E0",,,,,,,,,,,,,,,,,,,,,2024-06-05 09:56:50.566951870+02:00,bike,2024-06-05 09:56:17.973 UTC+02:00
32.69395187,"1,344168067E0","-9,924231768E-1","-4,055834293E0",,,,,,,,,,,,,,,,,,,,,2024-06-05 09:56:50.666951870+02:00,bike,2024-06-05 09:56:17.973 UTC+02:00
32.79395187,"4,515854359E0","-3,227319479E0","-5,244469166E0",,,,,,,,,,,,,,,,,,,,,2024-06-05 09:56:50.766951870+02:00,bike,2024-06-05 09:56:17.973 UTC+02:00
32.89395187,"4,586442947E0","-5,743970871E0","-5,447260857E0",,,,,,,,,,,,,,,,,,,,,2024-06-05 09:56:50.866951870+02:00,bike,2024-06-05 09:56:17.973 UTC+02:00
32.99395187,"4,475774765E0","-8,981459618E0","-6,436692715E0",,,,,,,,,,,,,,,,,,,,,2024-06-05 09:56:50.966951870+02:00,bike,2024-06-05 09:56:17.973 UTC+02:00
33.09395187,"4,785047054E0","-1,047637558E1","-2,901297569E0",,,,,,,,,,,,,,,,,,,,,2024-06-05 09:56:51.066951870+02:00,bike,2024-06-05 09:56:17.973 UTC+02:00
33.19395187,"6,396014690E0","-1,044945621E1","-8,023134232E0",,,,,,,,,,,,,,,,,,,,,2024-06-05 09:56:51.166951870+02:00,bike,2024-06-05 09:56:17.973 UTC+02:00
33.29395187,"3,156731367E0","-7,473383427E0","-1,170688510E0",,,,,,,,,,,,,,,,,,,,,2024-06-05 09:56:51.266951870+02:00,bike,2024-06-05 09:56:17.973 UTC+02:00
33.39395187,"8,300103188E0","-1,222552872E1","-7,707880020E0",,,,,,,,,,,,,,,,,,,,,2024-06-05 09:56:51.366951870+02:00,bike,2024-06-05 09:56:17.973 UTC+02:00
33.49395187,"3,495315790E0","-6,334399700E0","-4,301696777E0",,,,,,,,,,,,,,,,,,,,,2024-06-05 09:56:51.466951870+02:00,bike,2024-06-05 09:56:17.973 UTC+02:00
33.59395187,"2,946162939E0","-1,414158225E0","-5,653641701E0",,,,,,,,,,,,,,,,,,,,,2024-06-05 09:56:51.566951870+02:00,bike,2024-06-05 09:56:17.973 UTC+02:00
33.69395187,"2,121237278E0","-3,690928817E-1","-3,902095556E0",,,,,,,,,,,,,,,,,,,,,2024-06-05 09:56:51.666951870+02:00,bike,2024-06-05 09:56:17.973 UTC+02:00
33.79395187,"5,093721390E0","-5,871986866E0","-5,751747608E0",,,,,,,,,,,,,,,,,,,,,2024-06-05 09:56:51.766951870+02:00,bike,2024-06-05 09:56:17.973 UTC+02:00
33.89395187,"4,314259052E0","-9,214161873E0","-5,270191669E0",,,,,,,,,,,,,,,,,,,,,2024-06-05 09:56:51.866951870+02:00,bike,2024-06-05 09:56:17.973 UTC+02:00
33.99395187,"1,350150228E0","-8,829515457E0","-4,466801643E0",,,,,,,,,,,,,,,,,,,,,2024-06-05 09:56:51.966951870+02:00,bike,2024-06-05 09:56:17.973 UTC+02:00
34.09395187,"4,362713814E0","-6,862615108E0","-5,240281820E-1",,,,,,,,,,,,,,,,,,,,,2024-06-05 09:56:52.066951870+02:00,bike,2024-06-05 09:56:17.973 UTC+02:00
34.19395187,"2,812164783E0","-9,896116257E0","-4,305884361E0",,,,,,,,,,,,,,,,,,,,,2024-06-05 09:56:52.166951870+02:00,bike,2024-06-05 09:56:17.973 UTC+02:00
34.29395187,"6,973283291E0","-8,542376518E0","-3,696911097E0",,,,,,,,,,,,,,,,,,,,,2024-06-05 09:56:52.266951870+02:00,bike,2024-06-05 09:56:17.973 UTC+02:00
34.39395187,"2,560918331E0","-5,638088226E0","-4,447659016E0",,,,,,,,,,,,,,,,,,,,,2024-06-05 09:56:52.366951870+02:00,bike,2024-06-05 09:56:17.973 UTC+02:00
34.49395187,"5,511867046E0","-3,722035646E0","-6,547959328E0",,,,,,,,,,,,,,,,,,,,,2024-06-05 09:56:52.466951870+02:00,bike,2024-06-05 09:56:17.973 UTC+02:00
34.59395187,"2,377269268E0","2,213360928E-2","-1,835893154E0",,,,,,,,,,,,,,,,,,,,,2024-06-05 09:56:52.566951870+02:00,bike,2024-06-05 09:56:17.973 UTC+02:00
34.69395187,"6,655037880E0","-5,171487808E0","-4,956732273E0",,,,,,,,,,,,,,,,,,,,,2024-06-05 09:56:52.666951870+02:00,bike,2024-06-05 09:56:17.973 UTC+02:00
34.79395187,"3,937389612E0","-9,040083885E0","-5,217549801E0",,,,,,,,,,,,,,,,,,,,,2024-06-05 09:56:52.766951870+02:00,bike,2024-06-05 09:56:17.973 UTC+02:00
34.89395187,"5,076971531E0","-7,513463020E0","-4,144368649E0",,,,,,,,,,,,,,,,,,,,,2024-06-05 09:56:52.866951870+02:00,bike,2024-06-05 09:56:17.973 UTC+02:00
34.99395187,"6,390631199E0","-9,309874535E0","-5,885745525E0",,,,,,,,,,,,,,,,,,,,,2024-06-05 09:56:52.966951870+02:00,bike,2024-06-05 09:56:17.973 UTC+02:00
35.09395187,"4,332205296E0","-1,036630630E1","-6,163911343E0",,,,,,,,,,,,,,,,,,,,,2024-06-05 09:56:53.066951870+02:00,bike,2024-06-05 09:56:17.973 UTC+02:00
35.19395187,"4,926821709E0","-5,771488190E0","-3,156731367E0",,,,,,,,,,,,,,,,,,,,,2024-06-05 09:56:53.166951870+02:00,bike,2024-06-05 09:56:17.973 UTC+02:00
35.29395187,"7,216753006E0","-8,824729919E0","-6,570092678E0",,,,,,,,,,,,,,,,,,,,,2024-06-05 09:56:53.266951870+02:00,bike,2024-06-05 09:56:17.973 UTC+02:00
35.39395187,"2,426322222E0","-4,478167534E0","-3,839882135E0",,,,,,,,,,,,,,,,,,,,,2024-06-05 09:56:53.366951870+02:00,bike,2024-06-05 09:56:17.973 UTC+02:00
35.49395187,"1,920240223E-1","-4,151547253E-1","-4,615755081E0",,,,,,,,,,,,,,,,,,,,,2024-06-05 09:56:53.466951870+02:00,bike,2024-06-05 09:56:17.973 UTC+02:00
35.59395187,"5,769693375E0","-2,267199516E0","-6,092126369E0",,,,,,,,,,,,,,,,,,,,,2024-06-05 09:56:53.566951870+02:00,bike,2024-06-05 09:56:17.973 UTC+02:00
35.69395187,"2,140379906E0","-6,971488953E0","-9,511469841E0",,,,,,,,,,,,,,,,,,,,,2024-06-05 09:56:53.666951870+02:00,bike,2024-06-05 09:56:17.973 UTC+02:00
35.79395187,"5,547759533E0","-7,500900745E0","-4,893920422E0",,,,,,,,,,,,,,,,,,,,,2024-06-05 09:56:53.766951870+02:00,bike,2024-06-05 09:56:17.973 UTC+02:00
35.89395187,"3,086741209E0","-9,376275063E0","-3,848855257E0",,,,,,,,,,,,,,,,,,,,,2024-06-05 09:56:53.866951870+02:00,bike,2024-06-05 09:56:17.973 UTC+02:00
35.99395187,"2,833700180E0","-7,759325504E0","-1,483550072E0",,,,,,,,,,,,,,,,,,,,,2024-06-05 09:56:53.966951870+02:00,bike,2024-06-05 09:56:17.973 UTC+02:00
36.09395187,"4,449453831E0","-7,533802032E0","-1,767697692E0",,,,,,,,,,,,,,,,,,,,,2024-06-05 09:56:54.066951870+02:00,bike,2024-06-05 09:56:17.973 UTC+02:00
36.19395187,"6,705287457E0","-7,677371502E0","-6,939784050E0",,,,,,,,,,,,,,,,,,,,,2024-06-05 09:56:54.166951870+02:00,bike,2024-06-05 09:56:17.973 UTC+02:00
36.29395187,"5,842674732E0","-7,014559746E0","-6,626324177E0",,,,,,,,,,,,,,,,,,,,,2024-06-05 09:56:54.266951870+02:00,bike,2024-06-05 09:56:17.973 UTC+02:00
36.39395187,"2,436491728E0","-1,031306505E0","-4,432703972E0",,,,,,,,,,,,,,,,,,,,,2024-06-05 09:56:54.366951870+02:00,bike,2024-06-05 09:56:17.973 UTC+02:00
36.49395187,"6,250052929E0","-7,755736351E0","-3,354737282E0",,,,,,,,,,,,,,,,,,,,,2024-06-05 09:56:54.466951870+02:00,bike,2024-06-05 09:56:17.973 UTC+02:00
36.59395187,"4,356731892E0","-6,863213539E0","-6,175277233E0",,,,,,,,,,,,,,,,,,,,,2024-06-05 09:56:54.566951870+02:00,bike,2024-06-05 09:56:17.973 UTC+02:00
36.69395187,"4,647459984E0","-1,274596786E1","-6,680760860E0",,,,,,,,,,,,,,,,,,,,,2024-06-05 09:56:54.666951870+02:00,bike,2024-06-05 09:56:17.973 UTC+02:00
36.79395187,"4,454837322E0","-9,196215630E0","-2,641676188E0",,,,,,,,,,,,,,,,,,,,,2024-06-05 09:56:54.766951870+02:00,bike,2024-06-05 09:56:17.973 UTC+02:00
36.89395187,"6,950551510E0","-1,093878841E1","-6,329015732E0",,,,,,,,,,,,,,,,,,,,,2024-06-05 09:56:54.866951870+02:00,bike,2024-06-05 09:56:17.973 UTC+02:00
36.99395187,"4,344767570E0","-1,022094154E1","-6,400800705E0",,,,,,,,,,,,,,,,,,,,,2024-06-05 09:56:54.966951870+02:00,bike,2024-06-05 09:56:17.973 UTC+02:00
37.09395187,"5,444269657E0","-4,645665169E0","-4,595416069E0",,,,,,,,,,,,,,,,,,,,,2024-06-05 09:56:55.066951870+02:00,bike,2024-06-05 09:56:17.973 UTC+02:00
37.19395187,"6,026323795E0","-5,098506927E0","-7,864011765E0",,,,,,,,,,,,,,,,,,,,,2024-06-05 09:56:55.166951870+02:00,bike,2024-06-05 09:56:17.973 UTC+02:00
37.29395187,"4,262215137E0","-3,397808075E-1","-4,399204254E0",,,,,,,,,,,,,,,,,,,,,2024-06-05 09:56:55.266951870+02:00,bike,2024-06-05 09:56:17.973 UTC+02:00
37.39395187,"2,557927370E0","-8,398807645E-1","-4,523631096E0",,,,,,,,,,,,,,,,,,,,,2024-06-05 09:56:55.366951870+02:00,bike,2024-06-05 09:56:17.973 UTC+02:00
37.49395187,"6,334998131E0","-9,860223770E0","-6,222535133E0",,,,,,,,,,,,,,,,,,,,,2024-06-05 09:56:55.466951870+02:00,bike,2024-06-05 09:56:17.973 UTC+02:00
37.59395187,"3,285345554E0","-8,577671051E0","-4,146761417E0",,,,,,,,,,,,,,,,,,,,,2024-06-05 09:56:55.566951870+02:00,bike,2024-06-05 09:56:17.973 UTC+02:00
37.69395187,"5,277968407E0","-1,127139091E1","-6,916453838E0",,,,,,,,,,,,,,,,,,,,,2024-06-05 09:56:55.666951870+02:00,bike,2024-06-05 09:56:17.973 UTC+02:00
37.79395187,"4,341178417E0","-1,036092186E1","-5,943173409E0",,,,,,,,,,,,,,,,,,,,,2024-06-05 09:56:55.766951870+02:00,bike,2024-06-05 09:56:17.973 UTC+02:00
37.89395187,"5,578267574E0","-7,445267677E0","-3,841078520E0",,,,,,,,,,,,,,,,,,,,,2024-06-05 09:56:55.866951870+02:00,bike,2024-06-05 09:56:17.973 UTC+02:00
37.99395187,"5,259424210E0","-8,689535141E0","-5,855237007E0",,,,,,,,,,,,,,,,,,,,,2024-06-05 09:56:55.966951870+02:00,bike,2024-06-05 09:56:17.973 UTC+02:00
38.09395187,"2,283949137E0","-2,897708178E0","-4,058227062E0",,,,,,,,,,,,,,,,,,,,,2024-06-05 09:56:56.066951870+02:00,bike,2024-06-05 09:56:17.973 UTC+02:00
38.19395187,"4,859224796E0","-2,757728100E0","-7,186244488E0",,,,,,,,,,,,,,,,,,,,,2024-06-05 09:56:56.166951870+02:00,bike,2024-06-05 09:56:17.973 UTC+02:00
38.29395187,"1,386042476E0","-3,499503136E-1","-3,006581545E0",,,,,,,,,,,,,,,,,,,,,2024-06-05 09:56:56.266951870+02:00,bike,2024-06-05 09:56:17.973 UTC+02:00
38.39395187,"4,737788677E0","-4,770689964E0","-5,271986485E0",,,,,,,,,,,,,,,,,,,,,2024-06-05 09:56:56.366951870+02:00,bike,2024-06-05 09:56:17.973 UTC+02:00
38.49395187,"4,771886349E0","-8,990432739E0","-3,945166349E0",,,,,,,,,,,,,,,,,,,,,2024-06-05 09:56:56.466951870+02:00,bike,2024-06-05 09:56:17.973 UTC+02:00
38.59395187,"5,208576679E0","-8,957531929E0","-4,046861172E0",,,,,,,,,,,,,,,,,,,,,2024-06-05 09:56:56.566951870+02:00,bike,2024-06-05 09:56:17.973 UTC+02:00
38.69395187,"4,329214573E0","-9,235098839E0","-5,859424591E0",,,,,,,,,,,,,,,,,,,,,2024-06-05 09:56:56.666951870+02:00,bike,2024-06-05 09:56:17.973 UTC+02:00
38.79395187,"4,177868366E0","-8,064410210E0","-4,089931965E0",,,,,,,,,,,,,,,,,,,,,2024-06-05 09:56:56.766951870+02:00,bike,2024-06-05 09:56:17.973 UTC+02:00
38.89395187,"6,215356827E0","-8,154141426E0","-4,708476543E0",,,,,,,,,,,,,,,,,,,,,2024-06-05 09:56:56.866951870+02:00,bike,2024-06-05 09:56:17.973 UTC+02:00
38.99395187,"2,959921598E0","-2,795415163E0","-4,576871395E0",,,,,,,,,,,,,,,,,,,,,2024-06-05 09:56:56.966951870+02:00,bike,2024-06-05 09:56:17.973 UTC+02:00
39.09395187,"2,922832966E0","-2,541177750E0","-4,558925152E0",,,,,,,,,,,,,,,,,,,,,2024-06-05 09:56:57.066951870+02:00,bike,2024-06-05 09:56:17.973 UTC+02:00
39.19395187,"3,476771355E0","-2,710469961E0","-5,503491879E0",,,,,,,,,,,,,,,,,,,,,2024-06-05 09:56:57.166951870+02:00,bike,2024-06-05 09:56:17.973 UTC+02:00
39.29395187,"5,564508915E0","-6,637091637E0","-3,658027649E0",,,,,,,,,,,,,,,,,,,,,2024-06-05 09:56:57.266951870+02:00,bike,2024-06-05 09:56:17.973 UTC+02:00
39.39395187,"6,445067883E0","-9,495318413E0","-4,649254322E0",,,,,,,,,,,,,,,,,,,,,2024-06-05 09:56:57.366951870+02:00,bike,2024-06-05 09:56:17.973 UTC+02:00
39.49395187,"3,784847260E0","-1,321436310E1","-6,366104603E0",,,,,,,,,,,,,,,,,,,,,2024-06-05 09:56:57.466951870+02:00,bike,2024-06-05 09:56:17.973 UTC+02:00
39.59395187,"2,248655081E0","-7,442276478E0","-2,438286304E0",,,,,,,,,,,,,,,,,,,,,2024-06-05 09:56:57.566951870+02:00,bike,2024-06-05 09:56:17.973 UTC+02:00
39.69395187,"9,921240807E0","-1,333101273E1","-7,192226887E0",,,,,,,,,,,,,,,,,,,,,2024-06-05 09:56:57.666951870+02:00,bike,2024-06-05 09:56:17.973 UTC+02:00
39.79395187,"4,537988186E0","-4,912465096E0","-3,353540897E0",,,,,,,,,,,,,,,,,,,,,2024-06-05 09:56:57.766951870+02:00,bike,2024-06-05 09:56:17.973 UTC+02:00
39.89395187,"4,520041943E0","-4,564309120E0","-4,837090969E0",,,,,,,,,,,,,,,,,,,,,2024-06-05 09:56:57.866951870+02:00,bike,2024-06-05 09:56:17.973 UTC+02:00
39.99395187,"1,262213945E0","-6,035895348E-1","-3,608376503E0",,,,,,,,,,,,,,,,,,,,,2024-06-05 09:56:57.966951870+02:00,bike,2024-06-05 09:56:17.973 UTC+02:00
40.09395187,"4,234099865E0","-9,960124493E-1","-3,546761274E0",,,,,,,,,,,,,,,,,,,,,2024-06-05 09:56:58.066951870+02:00,bike,2024-06-05 09:56:17.973 UTC+02:00
40.19395187,"4,889134884E0","-9,020342827E0","-5,642275810E0",,,,,,,,,,,,,,,,,,,,,2024-06-05 09:56:58.166951870+02:00,bike,2024-06-05 09:56:17.973 UTC+02:00
40.29395187,"6,519843578E0","-5,387440205E0","-4,085146427E0",,,,,,,,,,,,,,,,,,,,,2024-06-05 09:56:58.266951870+02:00,bike,2024-06-05 09:56:17.973 UTC+02:00
40.39395187,"5,269593716E0","-1,167757225E1","-6,860820770E0",,,,,,,,,,,,,,,,,,,,,2024-06-05 09:56:58.366951870+02:00,bike,2024-06-05 09:56:17.973 UTC+02:00
40.49395187,"6,095715523E0","-9,988240242E0","-6,364310265E0",,,,,,,,,,,,,,,,,,,,,2024-06-05 09:56:58.466951870+02:00,bike,2024-06-05 09:56:17.973 UTC+02:00
40.59395187,"4,176671982E0","-7,559525013E0","-2,869592667E0",,,,,,,,,,,,,,,,,,,,,2024-06-05 09:56:58.566951870+02:00,bike,2024-06-05 09:56:17.973 UTC+02:00
40.69395187,"5,440082073E0","-6,513861656E0","-3,914059639E0",,,,,,,,,,,,,,,,,,,,,2024-06-05 09:56:58.666951870+02:00,bike,2024-06-05 09:56:17.973 UTC+02:00
40.79395187,"4,167100430E0","-4,692923546E0","-4,294518471E0",,,,,,,,,,,,,,,,,,,,,2024-06-05 09:56:58.766951870+02:00,bike,2024-06-05 09:56:17.973 UTC+02:00
40.89395187,"2,793620348E0","-1,812563181E0","-5,642275810E0",,,,,,,,,,,,,,,,,,,,,2024-06-05 09:56:58.866951870+02:00,bike,2024-06-05 09:56:17.973 UTC+02:00
40.99395187,"5,635097504E0","-5,455635548E0","-6,308078766E0",,,,,,,,,,,,,,,,,,,,,2024-06-05 09:56:58.966951870+02:00,bike,2024-06-05 09:56:17.973 UTC+02:00
41.09395187,"4,374079704E0","-3,769293785E0","-5,121836662E0",,,,,,,,,,,,,,,,,,,,,2024-06-05 09:56:59.066951870+02:00,bike,2024-06-05 09:56:17.973 UTC+02:00
41.19395187,"6,888936520E0","-1,466680622E1","-8,496315002E0",,,,,,,,,,,,,,,,,,,,,2024-06-05 09:56:59.166951870+02:00,bike,2024-06-05 09:56:17.973 UTC+02:00
41.29395187,"4,074378967E0","-8,213363647E0","-6,656832695E0",,,,,,,,,,,,,,,,,,,,,2024-06-05 09:56:59.266951870+02:00,bike,2024-06-05 09:56:17.973 UTC+02:00
41.39395187,"3,614358664E0","-4,824528694E0","-2,612962246E0",,,,,,,,,,,,,,,,,,,,,2024-06-05 09:56:59.366951870+02:00,bike,2024-06-05 09:56:17.973 UTC+02:00
41.49395187,"9,296713829E0","-1,060678482E1","-4,910670280E0",,,,,,,,,,,,,,,,,,,,,2024-06-05 09:56:59.466951870+02:00,bike,2024-06-05 09:56:17.973 UTC+02:00
41.59395187,"3,759124279E0","-4,402195454E0","-2,766103029E0",,,,,,,,,,,,,,,,,,,,,2024-06-05 09:56:59.566951870+02:00,bike,2024-06-05 09:56:17.973 UTC+02:00
41.69395187,"4,898705959E0","-4,900500774E0","-5,975476265E0",,,,,,,,,,,,,,,,,,,,,2024-06-05 09:56:59.666951870+02:00,bike,2024-06-05 09:56:17.973 UTC+02:00
41.79395187,"1,384247899E0","-2,195414782E0","-3,248256683E0",,,,,,,,,,,,,,,,,,,,,2024-06-05 09:56:59.766951870+02:00,bike,2024-06-05 09:56:17.973 UTC+02:00
41.89395187,"4,214957237E0","-4,518247128E0","-5,981458187E0",,,,,,,,,,,,,,,,,,,,,2024-06-05 09:56:59.866951870+02:00,bike,2024-06-05 09:56:17.973 UTC+02:00
41.99395187,"3,748954773E0","-7,998009682E0","-4,541577339E0",,,,,,,,,,,,,,,,,,,,,2024-06-05 09:56:59.966951870+02:00,bike,2024-06-05 09:56:17.973 UTC+02:00
42.09395187,"4,760520458E0","-8,615956306E0","-4,740779877E0",,,,,,,,,,,,,,,,,,,,,2024-06-05 09:57:00.066951870+02:00,bike,2024-06-05 09:56:17.973 UTC+02:00
42.19395187,"4,848456860E0","-1,051525879E1","-5,079962254E0",,,,,,,,,,,,,,,,,,,,,2024-06-05 09:57:00.166951870+02:00,bike,2024-06-05 09:56:17.973 UTC+02:00
42.29395187,"4,848456860E0","-1,051525879E1","-5,079962254E0",,,,,,,,,,,,,,,,,,,,,2024-06-05 09:57:00.266951870+02:00,bike,2024-06-05 09:56:17.973 UTC+02:00
42.39395187,"2,272583246E0","-7,771887779E0","-3,242872953E0",,,,,,,,,,,,,,,,,,,,,2024-06-05 09:57:00.366951870+02:00,bike,2024-06-05 09:56:17.973 UTC+02:00
42.49395187,"5,020740032E0","-6,192625046E0","-4,049253941E0",,,,,,,,,,,,,,,,,,,,,2024-06-05 09:57:00.466951870+02:00,bike,2024-06-05 09:56:17.973 UTC+02:00
42.59395187,"4,895116806E0","-3,195016384E0","-6,693921566E0",,,,,,,,,,,,,,,,,,,,,2024-06-05 09:57:00.566951870+02:00,bike,2024-06-05 09:56:17.973 UTC+02:00
42.69395187,"2,038684845E0","-2,874976397E0","-2,975475073E0",,,,,,,,,,,,,,,,,,,,,2024-06-05 09:57:00.666951870+02:00,bike,2024-06-05 09:56:17.973 UTC+02:00
42.79395187,"6,490531445E0","-6,037091732E0","-6,363113403E0",,,,,,,,,,,,,,,,,,,,,2024-06-05 09:57:00.766951870+02:00,bike,2024-06-05 09:56:17.973 UTC+02:00
42.89395187,"3,552743435E0","-8,608778000E0","-3,482155085E0",,,,,,,,,,,,,,,,,,,,,2024-06-05 09:57:00.866951870+02:00,bike,2024-06-05 09:56:17.973 UTC+02:00
42.99395187,"4,601995945E0","-9,278169632E0","-4,240081787E0",,,,,,,,,,,,,,,,,,,,,2024-06-05 09:57:00.966951870+02:00,bike,2024-06-05 09:56:17.973 UTC+02:00
43.09395187,"5,787041664E0","-1,181336498E1","-6,872784615E0",,,,,,,,,,,,,,,,,,,,,2024-06-05 09:57:01.066951870+02:00,bike,2024-06-05 09:56:17.973 UTC+02:00
43.19395187,"5,443073273E0","-7,793423176E0","-4,039084435E0",,,,,,,,,,,,,,,,,,,,,2024-06-05 09:57:01.166951870+02:00,bike,2024-06-05 09:56:17.973 UTC+02:00
43.29395187,"5,033302307E0","-8,044071198E0","-4,935794830E0",,,,,,,,,,,,,,,,,,,,,2024-06-05 09:57:01.266951870+02:00,bike,2024-06-05 09:56:17.973 UTC+02:00
43.39395187,"6,518048763E0","-7,086942673E0","-5,771488190E0",,,,,,,,,,,,,,,,,,,,,2024-06-05 09:57:01.366951870+02:00,bike,2024-06-05 09:56:17.973 UTC+02:00
43.49395187,"4,656432629E0","-4,965705395E0","-5,300700188E0",,,,,,,,,,,,,,,,,,,,,2024-06-05 09:57:01.466951870+02:00,bike,2024-06-05 09:56:17.973 UTC+02:00
43.59395187,"5,331208706E0","-4,086941242E0","-5,100899696E0",,,,,,,,,,,,,,,,,,,,,2024-06-05 09:57:01.566951870+02:00,bike,2024-06-05 09:56:17.973 UTC+02:00
43.69395187,"3,200998545E0","-1,913061738E0","-5,382056236E0",,,,,,,,,,,,,,,,,,,,,2024-06-05 09:57:01.666951870+02:00,bike,2024-06-05 09:56:17.973 UTC+02:00
43.79395187,"6,364310265E0","-8,280961037E0","-5,490331650E0",,,,,,,,,,,,,,,,,,,,,2024-06-05 09:57:01.766951870+02:00,bike,2024-06-05 09:56:17.973 UTC+02:00
43.89395187,"4,634897232E0","-7,864011765E0","-5,094917774E0",,,,,,,,,,,,,,,,,,,,,2024-06-05 09:57:01.866951870+02:00,bike,2024-06-05 09:56:17.973 UTC+02:00
43.99395187,"5,794818401E0","-1,010130119E1","-4,219742775E0",,,,,,,,,,,,,,,,,,,,,2024-06-05 09:57:01.966951870+02:00,bike,2024-06-05 09:56:17.973 UTC+02:00
44.09395187,"3,000599623E0","-7,215556622E0","-2,821736097E0",,,,,,,,,,,,,,,,,,,,,2024-06-05 09:57:02.066951870+02:00,bike,2024-06-05 09:56:17.973 UTC+02:00
44.19395187,"6,165107727E0","-9,177671432E0","-5,608178139E0",,,,,,,,,,,,,,,,,,,,,2024-06-05 09:57:02.166951870+02:00,bike,2024-06-05 09:56:17.973 UTC+02:00
44.29395187,"6,690930367E0","-7,970492363E0","-2,898904562E0",,,,,,,,,,,,,,,,,,,,,2024-06-05 09:57:02.266951870+02:00,bike,2024-06-05 09:56:17.973 UTC+02:00
44.39395187,"4,137788773E0","-4,266402721E0","-5,662614822E0",,,,,,,,,,,,,,,,,,,,,2024-06-05 09:57:02.366951870+02:00,bike,2024-06-05 09:56:17.973 UTC+02:00
44.49395187,"3,434896946E0","-1,794018745E0","-4,680361271E0",,,,,,,,,,,,,,,,,,,,,2024-06-05 09:57:02.466951870+02:00,bike,2024-06-05 09:56:17.973 UTC+02:00
44.59395187,"4,861617565E0","-4,259822369E0","-5,358726501E0",,,,,,,,,,,,,,,,,,,,,2024-06-05 09:57:02.566951870+02:00,bike,2024-06-05 09:56:17.973 UTC+02:00
44.69395187,"3,987638950E0","-5,300102234E0","-2,918047190E0",,,,,,,,,,,,,,,,,,,,,2024-06-05 09:57:02.666951870+02:00,bike,2024-06-05 09:56:17.973 UTC+02:00
44.79395187,"7,963313580E0","-1,213878918E1","-4,740181446E0",,,,,,,,,,,,,,,,,,,,,2024-06-05 09:57:02.766951870+02:00,bike,2024-06-05 09:56:17.973 UTC+02:00
44.89395187,"3,540181160E0","-1,021555805E1","-5,137988567E0",,,,,,,,,,,,,,,,,,,,,2024-06-05 09:57:02.866951870+02:00,bike,2024-06-05 09:56:17.973 UTC+02:00
44.99395187,"4,201796532E0","-8,784051895E0","-3,628117323E0",,,,,,,,,,,,,,,,,,,,,2024-06-05 09:57:02.966951870+02:00,bike,2024-06-05 09:56:17.973 UTC+02:00
45.09395187,"6,270989895E0","-8,995218277E0","-5,478965759E0",,,,,,,,,,,,,,,,,,,,,2024-06-05 09:57:03.066951870+02:00,bike,2024-06-05 09:56:17.973 UTC+02:00
45.19395187,"6,884748936E0","-7,854440212E0","-4,747360229E0",,,,,,,,,,,,,,,,,,,,,2024-06-05 09:57:03.166951870+02:00,bike,2024-06-05 09:56:17.973 UTC+02:00
45.29395187,"4,773681164E-1","-1,000199914E0","-2,383849621E0",,,,,,,,,,,,,,,,,,,,,2024-06-05 09:57:03.266951870+02:00,bike,2024-06-05 09:56:17.973 UTC+02:00
45.39395187,"4,685146809E0","-3,503690481E0","-6,691528320E0",,,,,,,,,,,,,,,,,,,,,2024-06-05 09:57:03.366951870+02:00,bike,2024-06-05 09:56:17.973 UTC+02:00
45.49395187,"2,854637384E0","-3,447459221E0","-3,181257725E0",,,,,,,,,,,,,,,,,,,,,2024-06-05 09:57:03.466951870+02:00,bike,2024-06-05 09:56:17.973 UTC+02:00
45.59395187,"3,915854216E0","-4,886143684E0","-2,907877684E0",,,,,,,,,,,,,,,,,,,,,2024-06-05 09:57:03.566951870+02:00,bike,2024-06-05 09:56:17.973 UTC+02:00
45.69395187,"6,960721016E0","-1,117089272E1","-5,367101192E0",,,,,,,,,,,,,,,,,,,,,2024-06-05 09:57:03.666951870+02:00,bike,2024-06-05 09:56:17.973 UTC+02:00
45.79395187,"4,739583492E0","-9,348159790E0","-5,140381336E0",,,,,,,,,,,,,,,,,,,,,2024-06-05 09:57:03.766951870+02:00,bike,2024-06-05 09:56:17.973 UTC+02:00
45.89395187,"4,037888050E0","-9,855438232E0","-3,084348440E0",,,,,,,,,,,,,,,,,,,,,2024-06-05 09:57:03.866951870+02:00,bike,2024-06-05 09:56:17.973 UTC+02:00
45.99395187,"6,743572235E0","-8,982656479E0","-4,732405186E0",,,,,,,,,,,,,,,,,,,,,2024-06-05 09:57:03.966951870+02:00,bike,2024-06-05 09:56:17.973 UTC+02:00
46.09395187,"5,980261803E0","-6,409175396E0","-5,051846981E0",,,,,,,,,,,,,,,,,,,,,2024-06-05 09:57:04.066951870+02:00,bike,2024-06-05 09:56:17.973 UTC+02:00
46.19395187,"3,640081406E0","-4,933402061E0","-4,624728203E0",,,,,,,,,,,,,,,,,,,,,2024-06-05 09:57:04.166951870+02:00,bike,2024-06-05 09:56:17.973 UTC+02:00
46.29395187,"1,624726534E0","1,339980662E-1","-1,972284079E0",,,,,,,,,,,,,,,,,,,,,2024-06-05 09:57:04.266951870+02:00,bike,2024-06-05 09:56:17.973 UTC+02:00
46.39395187,"4,259822369E0","-3,476771355E0","-5,099104881E0",,,,,,,,,,,,,,,,,,,,,2024-06-05 09:57:04.366951870+02:00,bike,2024-06-05 09:56:17.973 UTC+02:00
46.49395187,"3,891926050E0","-6,876374245E0","-2,758924484E0",,,,,,,,,,,,,,,,,,,,,2024-06-05 09:57:04.466951870+02:00,bike,2024-06-05 09:56:17.973 UTC+02:00
46.59395187,"9,514460564E0","-1,053799057E1","-6,730412006E0",,,,,,,,,,,,,,,,,,,,,2024-06-05 09:57:04.566951870+02:00,bike,2024-06-05 09:56:17.973 UTC+02:00
46.69395187,"7,009175777E0","-1,041117096E1","-4,601995945E0",,,,,,,,,,,,,,,,,,,,,2024-06-05 09:57:04.666951870+02:00,bike,2024-06-05 09:56:17.973 UTC+02:00
46.79395187,"4,947160721E0","-1,023589706E1","-4,573282242E0",,,,,,,,,,,,,,,,,,,,,2024-06-05 09:57:04.766951870+02:00,bike,2024-06-05 09:56:17.973 UTC+02:00
46.89395187,"4,691128731E0","-6,512664795E0","-4,425525665E0",,,,,,,,,,,,,,,,,,,,,2024-06-05 09:57:04.866951870+02:00,bike,2024-06-05 09:56:17.973 UTC+02:00
46.99395187,"5,645864964E0","-5,709873199E0","-5,698507309E0",,,,,,,,,,,,,,,,,,,,,2024-06-05 09:57:04.966951870+02:00,bike,2024-06-05 09:56:17.973 UTC+02:00
47.09395187,"4,165904045E0","-4,387240410E0","-2,593819857E0",,,,,,,,,,,,,,,,,,,,,2024-06-05 09:57:05.066951870+02:00,bike,2024-06-05 09:56:17.973 UTC+02:00
47.19395187,"-1,496710539E0","2,309073925E0","-4,106681824E0",,,,,,,,,,,,,,,,,,,,,2024-06-05 09:57:05.166951870+02:00,bike,2024-06-05 09:56:17.973 UTC+02:00
47.29395187,"7,942974567E0","-6,385845661E0","-6,560521603E0",,,,,,,,,,,,,,,,,,,,,2024-06-05 09:57:05.266951870+02:00,bike,2024-06-05 09:56:17.973 UTC+02:00
47.39395187,"3,270988464E0","-5,743970871E0","-3,564109325E0",,,,,,,,,,,,,,,,,,,,,2024-06-05 09:57:05.366951870+02:00,bike,2024-06-05 09:56:17.973 UTC+02:00
47.49395187,"8,890532494E0","-1,072463131E1","-6,660421848E0",,,,,,,,,,,,,,,,,,,,,2024-06-05 09:57:05.466951870+02:00,bike,2024-06-05 09:56:17.973 UTC+02:00
47.59395187,"6,316453457E0","-8,857631683E0","-3,555136204E0",,,,,,,,,,,,,,,,,,,,,2024-06-05 09:57:05.566951870+02:00,bike,2024-06-05 09:56:17.973 UTC+02:00
47.69395187,"4,441677094E0","-9,001200676E0","-2,621337175E0",,,,,,,,,,,,,,,,,,,,,2024-06-05 09:57:05.666951870+02:00,bike,2024-06-05 09:56:17.973 UTC+02:00
47.79395187,"6,226722717E0","-7,880163193E0","-6,180062771E0",,,,,,,,,,,,,,,,,,,,,2024-06-05 09:57:05.766951870+02:00,bike,2024-06-05 09:56:17.973 UTC+02:00
47.89395187,"9,731011391E0","-7,748558044E0","-7,781459332E0",,,,,,,,,,,,,,,,,,,,,2024-06-05 09:57:05.866951870+02:00,bike,2024-06-05 09:56:17.973 UTC+02:00
47.99395187,"1,931007862E0","-1,791027784E0","-1,962114573E0",,,,,,,,,,,,,,,,,,,,,2024-06-05 09:57:05.966951870+02:00,bike,2024-06-05 09:56:17.973 UTC+02:00
48.09395187,"2,628515720E0","-2,305484533E0","-3,592225075E0",,,,,,,,,,,,,,,,,,,,,2024-06-05 09:57:06.066951870+02:00,bike,2024-06-05 09:56:17.973 UTC+02:00
48.19395187,"6,725028038E0","-6,207580090E0","-5,161318302E0",,,,,,,,,,,,,,,,,,,,,2024-06-05 09:57:06.166951870+02:00,bike,2024-06-05 09:56:17.973 UTC+02:00
48.29395187,"5,295914650E0","-6,842276573E0","-3,571886063E0",,,,,,,,,,,,,,,,,,,,,2024-06-05 09:57:06.266951870+02:00,bike,2024-06-05 09:56:17.973 UTC+02:00
48.39395187,"7,229315281E0","-8,571688652E0","-4,370490551E0",,,,,,,,,,,,,,,,,,,,,2024-06-05 09:57:06.366951870+02:00,bike,2024-06-05 09:56:17.973 UTC+02:00
48.49395187,"4,741976261E0","-1,121635628E1","-6,911069870E0",,,,,,,,,,,,,,,,,,,,,2024-06-05 09:57:06.466951870+02:00,bike,2024-06-05 09:56:17.973 UTC+02:00
48.59395187,"4,153940201E0","-8,515457153E0","-1,881356835E0",,,,,,,,,,,,,,,,,,,,,2024-06-05 09:57:06.566951870+02:00,bike,2024-06-05 09:56:17.973 UTC+02:00
48.69395187,"5,582455158E0","-8,744570732E0","-3,228515863E0",,,,,,,,,,,,,,,,,,,,,2024-06-05 09:57:06.666951870+02:00,bike,2024-06-05 09:56:17.973 UTC+02:00
48.79395187,"5,271388054E0","-6,299703598E0","-5,190630436E0",,,,,,,,,,,,,,,,,,,,,2024-06-05 09:57:06.766951870+02:00,bike,2024-06-05 09:56:17.973 UTC+02:00
48.89395187,"5,235496044E0","-5,861817360E0","-5,190630436E0",,,,,,,,,,,,,,,,,,,,,2024-06-05 09:57:06.866951870+02:00,bike,2024-06-05 09:56:17.973 UTC+02:00
48.99395187,"2,874378204E0","-1,995614052E0","-2,634497643E0",,,,,,,,,,,,,,,,,,,,,2024-06-05 09:57:06.966951870+02:00,bike,2024-06-05 09:56:17.973 UTC+02:00
49.09395187,"5,461019516E0","-3,285943747E0","-7,381259441E0",,,,,,,,,,,,,,,,,,,,,2024-06-05 09:57:07.066951870+02:00,bike,2024-06-05 09:56:17.973 UTC+02:00
49.19395187,"7,260422230E0","-7,074978352E0","-1,465005636E0",,,,,,,,,,,,,,,,,,,,,2024-06-05 09:57:07.166951870+02:00,bike,2024-06-05 09:56:17.973 UTC+02:00
49.29395187,"2,697907448E0","-7,546364307E0","-2,371287346E0",,,,,,,,,,,,,,,,,,,,,2024-06-05 09:57:07.266951870+02:00,bike,2024-06-05 09:56:17.973 UTC+02:00
49.39395187,"5,656034470E0","-1,069771194E1","-6,381059647E0",,,,,,,,,,,,,,,,,,,,,2024-06-05 09:57:07.366951870+02:00,bike,2024-06-05 09:56:17.973 UTC+02:00
49.49395187,"5,163113117E0","-9,270393372E0","-4,049852371E0",,,,,,,,,,,,,,,,,,,,,2024-06-05 09:57:07.466951870+02:00,bike,2024-06-05 09:56:17.973 UTC+02:00
49.59395187,"6,115456581E0","-7,007979393E0","-4,659423828E0",,,,,,,,,,,,,,,,,,,,,2024-06-05 09:57:07.566951870+02:00,bike,2024-06-05 09:56:17.973 UTC+02:00
49.69395187,"1,080897808E1","-1,008634567E1","-6,765107632E0",,,,,,,,,,,,,,,,,,,,,2024-06-05 09:57:07.666951870+02:00,bike,2024-06-05 09:56:17.973 UTC+02:00
49.79395187,"3,151945591E0","-5,228317261E0","-2,006381750E0",,,,,,,,,,,,,,,,,,,,,2024-06-05 09:57:07.766951870+02:00,bike,2024-06-05 09:56:17.973 UTC+02:00
49.89395187,"2,606382132E0","-1,373480201E0","-2,871985435E0",,,,,,,,,,,,,,,,,,,,,2024-06-05 09:57:07.866951870+02:00,bike,2024-06-05 09:56:17.973 UTC+02:00
49.99395187,"6,066403389E0","-3,860221148E0","-4,527220249E0",,,,,,,,,,,,,,,,,,,,,2024-06-05 09:57:07.966951870+02:00,bike,2024-06-05 09:56:17.973 UTC+02:00
50.09395187,"6,244070530E0","-8,391031265E0","-4,314259052E0",,,,,,,,,,,,,,,,,,,,,2024-06-05 09:57:08.066951870+02:00,bike,2024-06-05 09:56:17.973 UTC+02:00
50.19395187,"6,535995007E0","-1,100040436E1","-4,086342812E0",,,,,,,,,,,,,,,,,,,,,2024-06-05 09:57:08.166951870+02:00,bike,2024-06-05 09:56:17.973 UTC+02:00
50.29395187,"6,972685337E0","-9,180662155E0","-4,157529354E0",,,,,,,,,,,,,,,,,,,,,2024-06-05 09:57:08.266951870+02:00,bike,2024-06-05 09:56:17.973 UTC+02:00
50.39395187,"5,482554913E0","-9,870393753E0","-3,692125320E0",,,,,,,,,,,,,,,,,,,,,2024-06-05 09:57:08.366951870+02:00,bike,2024-06-05 09:56:17.973 UTC+02:00
50.49395187,"6,913462639E0","-7,700103283E0","-4,095315933E0",,,,,,,,,,,,,,,,,,,,,2024-06-05 09:57:08.466951870+02:00,bike,2024-06-05 09:56:17.973 UTC+02:00
50.59395187,"8,471190453E0","-8,167900085E0","-5,444868088E0",,,,,,,,,,,,,,,,,,,,,2024-06-05 09:57:08.566951870+02:00,bike,2024-06-05 09:56:17.973 UTC+02:00
50.69395187,"2,066202402E0","-2,954537868E0","-3,551547050E0",,,,,,,,,,,,,,,,,,,,,2024-06-05 09:57:08.666951870+02:00,bike,2024-06-05 09:56:17.973 UTC+02:00
50.79395187,"2,529811859E0","-1,455434322E0","-2,677568436E0",,,,,,,,,,,,,,,,,,,,,2024-06-05 09:57:08.766951870+02:00,bike,2024-06-05 09:56:17.973 UTC+02:00
50.89395187,"6,898507595E0","-7,499704361E0","-3,927818298E0",,,,,,,,,,,,,,,,,,,,,2024-06-05 09:57:08.866951870+02:00,bike,2024-06-05 09:56:17.973 UTC+02:00
50.99395187,"5,707480431E0","-9,007183075E0","-3,329014540E0",,,,,,,,,,,,,,,,,,,,,2024-06-05 09:57:08.966951870+02:00,bike,2024-06-05 09:56:17.973 UTC+02:00
51.09395187,"6,309275150E0","-9,114261627E0","-4,501497746E0",,,,,,,,,,,,,,,,,,,,,2024-06-05 09:57:09.066951870+02:00,bike,2024-06-05 09:56:17.973 UTC+02:00
51.19395187,"6,476174355E0","-9,683753014E0","-4,148556232E0",,,,,,,,,,,,,,,,,,,,,2024-06-05 09:57:09.166951870+02:00,bike,2024-06-05 09:56:17.973 UTC+02:00
51.29395187,"5,326423168E0","-7,831110477E0","-3,763910055E0",,,,,,,,,,,,,,,,,,,,,2024-06-05 09:57:09.266951870+02:00,bike,2024-06-05 09:56:17.973 UTC+02:00
51.39395187,"6,708876610E0","-8,604590416E0","-4,268795490E0",,,,,,,,,,,,,,,,,,,,,2024-06-05 09:57:09.366951870+02:00,bike,2024-06-05 09:56:17.973 UTC+02:00
51.49395187,"5,877968788E0","-5,181059361E0","-3,908675671E0",,,,,,,,,,,,,,,,,,,,,2024-06-05 09:57:09.466951870+02:00,bike,2024-06-05 09:56:17.973 UTC+02:00
51.59395187,"4,289732933E0","-4,869992256E0","-2,715255499E0",,,,,,,,,,,,,,,,,,,,,2024-06-05 09:57:09.566951870+02:00,bike,2024-06-05 09:56:17.973 UTC+02:00
51.69395187,"5,273781300E0","-3,928416491E0","-3,637688637E0",,,,,,,,,,,,,,,,,,,,,2024-06-05 09:57:09.666951870+02:00,bike,2024-06-05 09:56:17.973 UTC+02:00
51.79395187,"4,249054909E0","-5,717051506E0","-2,837887764E0",,,,,,,,,,,,,,,,,,,,,2024-06-05 09:57:09.766951870+02:00,bike,2024-06-05 09:56:17.973 UTC+02:00
51.89395187,"3,968496323E0","-1,091665554E1","-4,604389191E0",,,,,,,,,,,,,,,,,,,,,2024-06-05 09:57:09.866951870+02:00,bike,2024-06-05 09:56:17.973 UTC+02:00
51.99395187,"6,704689026E0","-9,115457535E0","-3,482753277E0",,,,,,,,,,,,,,,,,,,,,2024-06-05 09:57:09.966951870+02:00,bike,2024-06-05 09:56:17.973 UTC+02:00
52.09395187,"6,586244106E0","-9,626325607E0","-4,405784607E0",,,,,,,,,,,,,,,,,,,,,2024-06-05 09:57:10.066951870+02:00,bike,2024-06-05 09:56:17.973 UTC+02:00
52.19395187,"4,664807796E0","-9,811769485E0","-3,868596077E0",,,,,,,,,,,,,,,,,,,,,2024-06-05 09:57:10.166951870+02:00,bike,2024-06-05 09:56:17.973 UTC+02:00
52.29395187,"4,956133842E0","-5,770890236E0","-4,405784607E0",,,,,,,,,,,,,,,,,,,,,2024-06-05 09:57:10.266951870+02:00,bike,2024-06-05 09:56:17.973 UTC+02:00
52.39395187,"7,009175777E0","-7,737192154E0","-5,193621635E0",,,,,,,,,,,,,,,,,,,,,2024-06-05 09:57:10.366951870+02:00,bike,2024-06-05 09:56:17.973 UTC+02:00
52.49395187,"1,481755376E0","-2,426322222E0","-2,240280151E0",,,,,,,,,,,,,,,,,,,,,2024-06-05 09:57:10.466951870+02:00,bike,2024-06-05 09:56:17.973 UTC+02:00
52.59395187,"5,843272686E0","-5,421537876E0","-4,348356724E0",,,,,,,,,,,,,,,,,,,,,2024-06-05 09:57:10.566951870+02:00,bike,2024-06-05 09:56:17.973 UTC+02:00
52.69395187,"6,119045734E0","-8,126026154E0","-4,533800602E0",,,,,,,,,,,,,,,,,,,,,2024-06-05 09:57:10.666951870+02:00,bike,2024-06-05 09:56:17.973 UTC+02:00
52.79395187,"7,652246952E0","-1,207418346E1","-6,126224041E0",,,,,,,,,,,,,,,,,,,,,2024-06-05 09:57:10.766951870+02:00,bike,2024-06-05 09:56:17.973 UTC+02:00
52.89395187,"6,282355785E0","-1,071924686E1","-7,907680511E0",,,,,,,,,,,,,,,,,,,,,2024-06-05 09:57:10.866951870+02:00,bike,2024-06-05 09:56:17.973 UTC+02:00
52.99395187,"7,422535896E0","-7,268796921E0","-2,394019127E0",,,,,,,,,,,,,,,,,,,,,2024-06-05 09:57:10.966951870+02:00,bike,2024-06-05 09:56:17.973 UTC+02:00
53.09395187,"6,233901024E0","-9,530014038E0","-5,418546677E0",,,,,,,,,,,,,,,,,,,,,2024-06-05 09:57:11.066951870+02:00,bike,2024-06-05 09:56:17.973 UTC+02:00
53.19395187,"3,872783422E0","-5,402395248E0","-3,230908871E0",,,,,,,,,,,,,,,,,,,,,2024-06-05 09:57:11.166951870+02:00,bike,2024-06-05 09:56:17.973 UTC+02:00
53.29395187,"2,522633314E0","-3,409772158E0","-2,441875458E0",,,,,,,,,,,,,,,,,,,,,2024-06-05 09:57:11.266951870+02:00,bike,2024-06-05 09:56:17.973 UTC+02:00
53.39395187,"1,662413478E0","-1,933400750E0","-5,099104881E0",,,,,,,,,,,,,,,,,,,,,2024-06-05 09:57:11.366951870+02:00,bike,2024-06-05 09:56:17.973 UTC+02:00
53.49395187,"3,262015581E0","-1,672582984E0","-3,507279873E0",,,,,,,,,,,,,,,,,,,,,2024-06-05 09:57:11.466951870+02:00,bike,2024-06-05 09:56:17.973 UTC+02:00
53.59395187,"8,578269005E0","-1,265982628E1","-4,853242397E0",,,,,,,,,,,,,,,,,,,,,2024-06-05 09:57:11.566951870+02:00,bike,2024-06-05 09:56:17.973 UTC+02:00
53.69395187,"6,263213158E0","-9,286544800E0","-3,619144201E0",,,,,,,,,,,,,,,,,,,,,2024-06-05 09:57:11.666951870+02:00,bike,2024-06-05 09:56:17.973 UTC+02:00
53.79395187,"6,622136593E0","-1,138983536E1","-5,665007591E0",,,,,,,,,,,,,,,,,,,,,2024-06-05 09:57:11.766951870+02:00,bike,2024-06-05 09:56:17.973 UTC+02:00
53.89395187,"6,193821430E0","-1,037408257E1","-5,132604599E0",,,,,,,,,,,,,,,,,,,,,2024-06-05 09:57:11.866951870+02:00,bike,2024-06-05 09:56:17.973 UTC+02:00
53.99395187,"7,076773167E0","-8,345566750E0","-3,559323788E0",,,,,,,,,,,,,,,,,,,,,2024-06-05 09:57:11.966951870+02:00,bike,2024-06-05 09:56:17.973 UTC+02:00
54.09395187,"5,328217983E0","-6,114260197E0","-3,830909014E0",,,,,,,,,,,,,,,,,,,,,2024-06-05 09:57:12.066951870+02:00,bike,2024-06-05 09:56:17.973 UTC+02:00
54.19395187,"3,399602890E0","-4,350151539E0","-4,660022259E0",,,,,,,,,,,,,,,,,,,,,2024-06-05 09:57:12.166951870+02:00,bike,2024-06-05 09:56:17.973 UTC+02:00
54.29395187,"8,303094506E-1","-7,268198729E-1","-3,197409153E0",,,,,,,,,,,,,,,,,,,,,2024-06-05 09:57:12.266951870+02:00,bike,2024-06-05 09:56:17.973 UTC+02:00
54.39395187,"5,456233978E0","-6,533602238E0","-5,364708424E0",,,,,,,,,,,,,,,,,,,,,2024-06-05 09:57:12.366951870+02:00,bike,2024-06-05 09:56:17.973 UTC+02:00
54.49395187,"7,112665176E0","-1,076830006E1","-7,090531826E0",,,,,,,,,,,,,,,,,,,,,2024-06-05 09:57:12.466951870+02:00,bike,2024-06-05 09:56:17.973 UTC+02:00
54.59395187,"4,968098164E0","-6,940980434E0","-3,921238184E0",,,,,,,,,,,,,,,,,,,,,2024-06-05 09:57:12.566951870+02:00,bike,2024-06-05 09:56:17.973 UTC+02:00
54.69395187,"6,148357868E0","-9,558130264E0","-4,448257446E0",,,,,,,,,,,,,,,,,,,,,2024-06-05 09:57:12.666951870+02:00,bike,2024-06-05 09:56:17.973 UTC+02:00
54.79395187,"6,256632805E0","-9,838688850E0","-3,227917671E0",,,,,,,,,,,,,,,,,,,,,2024-06-05 09:57:12.766951870+02:00,bike,2024-06-05 09:56:17.973 UTC+02:00
54.89395187,"6,500700951E0","-7,484749317E0","-3,437887907E0",,,,,,,,,,,,,,,,,,,,,2024-06-05 09:57:12.866951870+02:00,bike,2024-06-05 09:56:17.973 UTC+02:00
54.99395187,"5,607579708E0","-5,384449005E0","-4,051646709E0",,,,,,,,,,,,,,,,,,,,,2024-06-05 09:57:12.966951870+02:00,bike,2024-06-05 09:56:17.973 UTC+02:00
55.09395187,"-5,222335458E-1","-1,735992789E0","-1,816152334E0",,,,,,,,,,,,,,,,,,,,,2024-06-05 09:57:13.066951870+02:00,bike,2024-06-05 09:56:17.973 UTC+02:00
55.19395187,"2,904886723E0","-9,595218897E-1","-4,071985722E0",,,,,,,,,,,,,,,,,,,,,2024-06-05 09:57:13.166951870+02:00,bike,2024-06-05 09:56:17.973 UTC+02:00
55.29395187,"3,932005882E0","-8,688937187E0","-3,973282099E0",,,,,,,,,,,,,,,,,,,,,2024-06-05 09:57:13.266951870+02:00,bike,2024-06-05 09:56:17.973 UTC+02:00
55.39395187,"7,875975609E0","-9,934401512E0","-4,907679081E0",,,,,,,,,,,,,,,,,,,,,2024-06-05 09:57:13.366951870+02:00,bike,2024-06-05 09:56:17.973 UTC+02:00
55.49395187,"5,261219025E0","-9,638887405E0","-4,258625984E0",,,,,,,,,,,,,,,,,,,,,2024-06-05 09:57:13.466951870+02:00,bike,2024-06-05 09:56:17.973 UTC+02:00
55.59395187,"4,922036171E0","-8,785248756E0","-2,790031195E0",,,,,,,,,,,,,,,,,,,,,2024-06-05 09:57:13.566951870+02:00,bike,2024-06-05 09:56:17.973 UTC+02:00
55.69395187,"7,877171993E0","-1,012044334E1","-5,039882660E0",,,,,,,,,,,,,,,,,,,,,2024-06-05 09:57:13.666951870+02:00,bike,2024-06-05 09:56:17.973 UTC+02:00
55.79395187,"3,748356581E0","-4,492524624E0","-3,214159012E0",,,,,,,,,,,,,,,,,,,,,2024-06-05 09:57:13.766951870+02:00,bike,2024-06-05 09:56:17.973 UTC+02:00
55.89395187,"5,700900078E0","-6,997809887E0","-5,250451088E0",,,,,,,,,,,,,,,,,,,,,2024-06-05 09:57:13.866951870+02:00,bike,2024-06-05 09:56:17.973 UTC+02:00
55.99395187,"-4,737788737E-1","-9,649057388E-1","-1,978864312E0",,,,,,,,,,,,,,,,,,,,,2024-06-05 09:57:13.966951870+02:00,bike,2024-06-05 09:56:17.973 UTC+02:00
56.09395187,"2,670988321E0","-5,634499073E0","-4,832305431E0",,,,,,,,,,,,,,,,,,,,,2024-06-05 09:57:14.066951870+02:00,bike,2024-06-05 09:56:17.973 UTC+02:00
56.19395187,"4,706682205E0","-4,645066738E0","-3,733999729E0",,,,,,,,,,,,,,,,,,,,,2024-06-05 09:57:14.166951870+02:00,bike,2024-06-05 09:56:17.973 UTC+02:00
56.29395187,"6,378068924E0","-9,923035622E0","-4,947160721E0",,,,,,,,,,,,,,,,,,,,,2024-06-05 09:57:14.266951870+02:00,bike,2024-06-05 09:56:17.973 UTC+02:00
56.39395187,"4,670789719E0","-6,586244106E0","-6,909275651E-1",,,,,,,,,,,,,,,,,,,,,2024-06-05 09:57:14.366951870+02:00,bike,2024-06-05 09:56:17.973 UTC+02:00
56.49395187,"5,612365723E0","-1,101356411E1","-5,282155991E0",,,,,,,,,,,,,,,,,,,,,2024-06-05 09:57:14.466951870+02:00,bike,2024-06-05 09:56:17.973 UTC+02:00
56.59395187,"7,835297585E0","-7,976474285E0","-5,067998409E0",,,,,,,,,,,,,,,,,,,,,2024-06-05 09:57:14.566951870+02:00,bike,2024-06-05 09:56:17.973 UTC+02:00
56.69395187,"3,428914785E0","-5,027918816E0","-2,059622049E0",,,,,,,,,,,,,,,,,,,,,2024-06-05 09:57:14.666951870+02:00,bike,2024-06-05 09:56:17.973 UTC+02:00
56.79395187,"3,860221148E0","-2,891726255E0","-3,324826956E0",,,,,,,,,,,,,,,,,,,,,2024-06-05 09:57:14.766951870+02:00,bike,2024-06-05 09:56:17.973 UTC+02:00
56.89395187,"2,064407825E0","-2,410170555E0","-3,365504980E0",,,,,,,,,,,,,,,,,,,,,2024-06-05 09:57:14.866951870+02:00,bike,2024-06-05 09:56:17.973 UTC+02:00
56.99395187,"6,154339790E0","-2,663809776E0","-4,052843571E0",,,,,,,,,,,,,,,,,,,,,2024-06-05 09:57:14.966951870+02:00,bike,2024-06-05 09:56:17.973 UTC+02:00
57.09395187,"6,252445698E0","-9,201599121E0","-4,025924206E0",,,,,,,,,,,,,,,,,,,,,2024-06-05 09:57:15.066951870+02:00,bike,2024-06-05 09:56:17.973 UTC+02:00
57.19395187,"8,516654015E0","-1,083350468E1","-5,962913990E0",,,,,,,,,,,,,,,,,,,,,2024-06-05 09:57:15.166951870+02:00,bike,2024-06-05 09:56:17.973 UTC+02:00
57.29395187,"7,639086246E0","-8,712266922E0","-3,023331404E0",,,,,,,,,,,,,,,,,,,,,2024-06-05 09:57:15.266951870+02:00,bike,2024-06-05 09:56:17.973 UTC+02:00
57.39395187,"5,507679462E0","-8,601000786E0","-4,314259052E0",,,,,,,,,,,,,,,,,,,,,2024-06-05 09:57:15.366951870+02:00,bike,2024-06-05 09:56:17.973 UTC+02:00
57.49395187,"5,556732178E0","-7,627720356E0","-4,080360889E0",,,,,,,,,,,,,,,,,,,,,2024-06-05 09:57:15.466951870+02:00,bike,2024-06-05 09:56:17.973 UTC+02:00
57.59395187,"7,049853802E0","-6,841079712E0","-5,109872818E0",,,,,,,,,,,,,,,,,,,,,2024-06-05 09:57:15.566951870+02:00,bike,2024-06-05 09:56:17.973 UTC+02:00
57.69395187,"4,300500393E0","-3,839283943E0","-3,592225075E0",,,,,,,,,,,,,,,,,,,,,2024-06-05 09:57:15.666951870+02:00,bike,2024-06-05 09:56:17.973 UTC+02:00
57.79395187,"6,008377552E0","-2,909672260E0","-4,518247128E0",,,,,,,,,,,,,,,,,,,,,2024-06-05 09:57:15.766951870+02:00,bike,2024-06-05 09:56:17.973 UTC+02:00
57.89395187,"4,867001057E0","-6,267998695E0","-4,995615482E0",,,,,,,,,,,,,,,,,,,,,2024-06-05 09:57:15.866951870+02:00,bike,2024-06-05 09:56:17.973 UTC+02:00
57.99395187,"8,821140289E0","-7,464410305E0","-4,034298897E0",,,,,,,,,,,,,,,,,,,,,2024-06-05 09:57:15.966951870+02:00,bike,2024-06-05 09:56:17.973 UTC+02:00
58.09395187,"5,827121258E0","-9,390632629E0","-5,164309502E0",,,,,,,,,,,,,,,,,,,,,2024-06-05 09:57:16.066951870+02:00,bike,2024-06-05 09:56:17.973 UTC+02:00
58.19395187,"5,036891460E0","-6,856633186E0","-2,849253654E0",,,,,,,,,,,,,,,,,,,,,2024-06-05 09:57:16.166951870+02:00,bike,2024-06-05 09:56:17.973 UTC+02:00
58.29395187,"4,447659016E0","-7,752147198E0","-1,823330879E0",,,,,,,,,,,,,,,,,,,,,2024-06-05 09:57:16.266951870+02:00,bike,2024-06-05 09:56:17.973 UTC+02:00
58.39395187,"6,082555294E0","-9,322437286E0","-6,518048763E0",,,,,,,,,,,,,,,,,,,,,2024-06-05 09:57:16.366951870+02:00,bike,2024-06-05 09:56:17.973 UTC+02:00
58.49395187,"8,614161491E0","-6,920641422E0","-5,021338463E0",,,,,,,,,,,,,,,,,,,,,2024-06-05 09:57:16.466951870+02:00,bike,2024-06-05 09:56:17.973 UTC+02:00
58.59395187,"5,128417015E0","-6,634100676E-1","-5,258227825E0",,,,,,,,,,,,,,,,,,,,,2024-06-05 09:57:16.566951870+02:00,bike,2024-06-05 09:56:17.973 UTC+02:00
58.69395187,"6,522236347E0","-1,955534339E0","-3,362514019E0",,,,,,,,,,,,,,,,,,,,,2024-06-05 09:57:16.666951870+02:00,bike,2024-06-05 09:56:17.973 UTC+02:00
58.79395187,"5,159523964E0","-5,348556995E0","-3,364906788E0",,,,,,,,,,,,,,,,,,,,,2024-06-05 09:57:16.766951870+02:00,bike,2024-06-05 09:56:17.973 UTC+02:00
58.89395187,"4,475176334E0","-7,909475327E0","-2,766103029E0",,,,,,,,,,,,,,,,,,,,,2024-06-05 09:57:16.866951870+02:00,bike,2024-06-05 09:56:17.973 UTC+02:00
58.99395187,"5,864210129E0","-9,238089561E0","-7,265805721E0",,,,,,,,,,,,,,,,,,,,,2024-06-05 09:57:16.966951870+02:00,bike,2024-06-05 09:56:17.973 UTC+02:00
59.09395187,"7,789236069E0","-7,556533813E0","-4,259224415E0",,,,,,,,,,,,,,,,,,,,,2024-06-05 09:57:17.066951870+02:00,bike,2024-06-05 09:56:17.973 UTC+02:00
59.19395187,"4,651647091E0","-9,661619186E0","-2,867797852E0",,,,,,,,,,,,,,,,,,,,,2024-06-05 09:57:17.166951870+02:00,bike,2024-06-05 09:56:17.973 UTC+02:00
59.29395187,"8,087141991E0","-7,021139622E0","-2,892922640E0",,,,,,,,,,,,,,,,,,,,,2024-06-05 09:57:17.266951870+02:00,bike,2024-06-05 09:56:17.973 UTC+02:00
59.39395187,"6,677769661E0","-6,629913330E0","-5,473581791E0",,,,,,,,,,,,,,,,,,,,,2024-06-05 09:57:17.366951870+02:00,bike,2024-06-05 09:56:17.973 UTC+02:00
59.49395187,"4,276572227E0","-4,952544689E0","-3,270988464E0",,,,,,,,,,,,,,,,,,,,,2024-06-05 09:57:17.466951870+02:00,bike,2024-06-05 09:56:17.973 UTC+02:00
59.59395187,"4,217349887E-1","-1,938186288E-1","-2,736790895E0",,,,,,,,,,,,,,,,,,,,,2024-06-05 09:57:17.566951870+02:00,bike,2024-06-05 09:56:17.973 UTC+02:00
59.69395187,"8,956933022E0","-5,212764263E0","-4,452444553E0",,,,,,,,,,,,,,,,,,,,,2024-06-05 09:57:17.666951870+02:00,bike,2024-06-05 09:56:17.973 UTC+02:00
59.79395187,"6,594020844E0","-1,106620693E1","-4,362115860E0",,,,,,,,,,,,,,,,,,,,,2024-06-05 09:57:17.766951870+02:00,bike,2024-06-05 09:56:17.973 UTC+02:00
59.89395187,"7,188039303E0","-9,105886459E0","-8,548358679E-1",,,,,,,,,,,,,,,,,,,,,2024-06-05 09:57:17.866951870+02:00,bike,2024-06-05 09:56:17.973 UTC+02:00
59.99395187,"5,413761139E0","-8,623732567E0","-3,611367464E0",,,,,,,,,,,,,,,,,,,,,2024-06-05 09:57:17.966951870+02:00,bike,2024-06-05 09:56:17.973 UTC+02:00
60.09395187,"6,553941250E0","-1,028734303E1","-4,691727161E0",,,,,,,,,,,,,,,,,,,,,2024-06-05 09:57:18.066951870+02:00,bike,2024-06-05 09:56:17.973 UTC+02:00
60.19395187,"6,845865726E0","-8,453244209E0","-3,912863255E0",,,,,,,,,,,,,,,,,,,,,2024-06-05 09:57:18.166951870+02:00,bike,2024-06-05 09:56:17.973 UTC+02:00
60.29395187,"6,268597126E0","-7,933403492E0","-5,868397713E0",,,,,,,,,,,,,,,,,,,,,2024-06-05 09:57:18.266951870+02:00,bike,2024-06-05 09:56:17.973 UTC+02:00
60.39395187,"5,483751297E0","-2,669193745E0","-3,326621771E0",,,,,,,,,,,,,,,,,,,,,2024-06-05 09:57:18.366951870+02:00,bike,2024-06-05 09:56:17.973 UTC+02:00
60.49395187,"3,862015724E0","1,892124534E0","-2,591426849E0",,,,,,,,,,,,,,,,,,,,,2024-06-05 09:57:18.466951870+02:00,bike,2024-06-05 09:56:17.973 UTC+02:00
60.59395187,"8,084749222E0","-6,661019802E0","-3,590430260E0",,,,,,,,,,,,,,,,,,,,,2024-06-05 09:57:18.566951870+02:00,bike,2024-06-05 09:56:17.973 UTC+02:00
60.69395187,"5,268995285E0","-4,261617184E0","-3,548556089E0",,,,,,,,,,,,,,,,,,,,,2024-06-05 09:57:18.666951870+02:00,bike,2024-06-05 09:56:17.973 UTC+02:00
60.79395187,"6,736393929E0","-1,260658646E1","-4,923830986E0",,,,,,,,,,,,,,,,,,,,,2024-06-05 09:57:18.766951870+02:00,bike,2024-06-05 09:56:17.973 UTC+02:00
60.89395187,"3,593421459E0","-9,180064201E0","-3,404388428E0",,,,,,,,,,,,,,,,,,,,,2024-06-05 09:57:18.866951870+02:00,bike,2024-06-05 09:56:17.973 UTC+02:00
60.99395187,"7,289734364E0","-8,539385796E0","-3,107080221E0",,,,,,,,,,,,,,,,,,,,,2024-06-05 09:57:18.966951870+02:00,bike,2024-06-05 09:56:17.973 UTC+02:00
61.09395187,"8,732605934E0","-1,297508049E1","-2,203191519E0",,,,,,,,,,,,,,,,,,,,,2024-06-05 09:57:19.066951870+02:00,bike,2024-06-05 09:56:17.973 UTC+02:00
61.19395187,"3,325425386E0","-6,166304111E0","-4,607978344E0",,,,,,,,,,,,,,,,,,,,,2024-06-05 09:57:19.166951870+02:00,bike,2024-06-05 09:56:17.973 UTC+02:00
61.29395187,"4,799404144E0","-5,626124382E0","-4,502095699E0",,,,,,,,,,,,,,,,,,,,,2024-06-05 09:57:19.266951870+02:00,bike,2024-06-05 09:56:17.973 UTC+02:00
61.39395187,"2,792423964E0","-3,716053486E0","-2,848057270E0",,,,,,,,,,,,,,,,,,,,,2024-06-05 09:57:19.366951870+02:00,bike,2024-06-05 09:56:17.973 UTC+02:00
61.49395187,"5,166104317E0","-4,025924206E0","-2,669193745E0",,,,,,,,,,,,,,,,,,,,,2024-06-05 09:57:19.466951870+02:00,bike,2024-06-05 09:56:17.973 UTC+02:00
61.59395187,"8,767900467E0","-9,291330338E0","-4,968696117E0",,,,,,,,,,,,,,,,,,,,,2024-06-05 09:57:19.566951870+02:00,bike,2024-06-05 09:56:17.973 UTC+02:00
61.69395187,"5,592026711E0","-7,295117855E0","-4,185645103E0",,,,,,,,,,,,,,,,,,,,,2024-06-05 09:57:19.666951870+02:00,bike,2024-06-05 09:56:17.973 UTC+02:00
61.79395187,"6,373881340E0","-6,131010056E0","-5,602196217E0",,,,,,,,,,,,,,,,,,,,,2024-06-05 09:57:19.766951870+02:00,bike,2024-06-05 09:56:17.973 UTC+02:00
61.89395187,"6,504290104E0","-6,894918442E0","-4,881956577E0",,,,,,,,,,,,,,,,,,,,,2024-06-05 09:57:19.866951870+02:00,bike,2024-06-05 09:56:17.973 UTC+02:00
61.99395187,"7,202396393E0","-6,616752625E0","-3,933202267E0",,,,,,,,,,,,,,,,,,,,,2024-06-05 09:57:19.966951870+02:00,bike,2024-06-05 09:56:17.973 UTC+02:00
62.09395187,"6,372086525E0","-5,638686657E0","-4,216751575E0",,,,,,,,,,,,,,,,,,,,,2024-06-05 09:57:20.066951870+02:00,bike,2024-06-05 09:56:17.973 UTC+02:00
62.19395187,"4,822135925E0","-5,760720730E0","-4,267001152E0",,,,,,,,,,,,,,,,,,,,,2024-06-05 09:57:20.166951870+02:00,bike,2024-06-05 09:56:17.973 UTC+02:00
62.29395187,"6,270989895E0","-5,244469166E0","-5,101497650E0",,,,,,,,,,,,,,,,,,,,,2024-06-05 09:57:20.266951870+02:00,bike,2024-06-05 09:56:17.973 UTC+02:00
62.39395187,"4,813760757E0","-4,734199524E0","-4,002593994E0",,,,,,,,,,,,,,,,,,,,,2024-06-05 09:57:20.366951870+02:00,bike,2024-06-05 09:56:17.973 UTC+02:00
62.49395187,"4,238885403E0","-5,858228207E0","-4,198207378E0",,,,,,,,,,,,,,,,,,,,,2024-06-05 09:57:20.466951870+02:00,bike,2024-06-05 09:56:17.973 UTC+02:00
62.59395187,"6,956533432E0","-7,114459991E0","-5,327021599E0",,,,,,,,,,,,,,,,,,,,,2024-06-05 09:57:20.566951870+02:00,bike,2024-06-05 09:56:17.973 UTC+02:00
62.69395187,"5,860022545E0","-7,070790768E0","-5,028516769E0",,,,,,,,,,,,,,,,,,,,,2024-06-05 09:57:20.666951870+02:00,bike,2024-06-05 09:56:17.973 UTC+02:00
62.79395187,"7,160521984E0","-7,197012424E0","-6,110072613E0",,,,,,,,,,,,,,,,,,,,,2024-06-05 09:57:20.766951870+02:00,bike,2024-06-05 09:56:17.973 UTC+02:00
62.89395187,"7,140182972E0","-6,784250259E0","-5,306084156E0",,,,,,,,,,,,,,,,,,,,,2024-06-05 09:57:20.866951870+02:00,bike,2024-06-05 09:56:17.973 UTC+02:00
62.99395187,"6,078367710E0","-4,651049137E0","-4,117449760E0",,,,,,,,,,,,,,,,,,,,,2024-06-05 09:57:20.966951870+02:00,bike,2024-06-05 09:56:17.973 UTC+02:00
63.09395187,"8,716454506E0","-9,382855415E0","-6,863213539E0",,,,,,,,,,,,,,,,,,,,,2024-06-05 09:57:21.066951870+02:00,bike,2024-06-05 09:56:17.973 UTC+02:00
63.19395187,"3,693919897E0","-3,245863914E0","-3,580260992E0",,,,,,,,,,,,,,,,,,,,,2024-06-05 09:57:21.166951870+02:00,bike,2024-06-05 09:56:17.973 UTC+02:00
63.29395187,"7,001399040E0","-3,425923824E0","-3,021536827E0",,,,,,,,,,,,,,,,,,,,,2024-06-05 09:57:21.266951870+02:00,bike,2024-06-05 09:56:17.973 UTC+02:00
63.39395187,"7,895118237E0","-7,965108395E0","-7,333403111E0",,,,,,,,,,,,,,,,,,,,,2024-06-05 09:57:21.366951870+02:00,bike,2024-06-05 09:56:17.973 UTC+02:00
63.49395187,"6,705287457E0","-5,842674732E0","-4,798805714E0",,,,,,,,,,,,,,,,,,,,,2024-06-05 09:57:21.466951870+02:00,bike,2024-06-05 09:56:17.973 UTC+02:00
63.59395187,"3,856631994E0","-2,565704107E0","-3,329612732E0",,,,,,,,,,,,,,,,,,,,,2024-06-05 09:57:21.566951870+02:00,bike,2024-06-05 09:56:17.973 UTC+02:00
63.69395187,"1,002473068E1","-6,614958286E0","-6,675376892E0",,,,,,,,,,,,,,,,,,,,,2024-06-05 09:57:21.666951870+02:00,bike,2024-06-05 09:56:17.973 UTC+02:00
63.79395187,"9,639486313E0","-8,143971443E0","-7,677969456E0",,,,,,,,,,,,,,,,,,,,,2024-06-05 09:57:21.766951870+02:00,bike,2024-06-05 09:56:17.973 UTC+02:00
63.89395187,"5,023132801E0","-2,365305185E0","-4,704887390E0",,,,,,,,,,,,,,,,,,,,,2024-06-05 09:57:21.866951870+02:00,bike,2024-06-05 09:56:17.973 UTC+02:00
63.99395187,"4,829314232E0","-4,035495281E0","-3,773481369E0",,,,,,,,,,,,,,,,,,,,,2024-06-05 09:57:21.966951870+02:00,bike,2024-06-05 09:56:17.973 UTC+02:00
64.09395187,"7,199405193E0","-8,121239662E0","-2,766103029E0",,,,,,,,,,,,,,,,,,,,,2024-06-05 09:57:22.066951870+02:00,bike,2024-06-05 09:56:17.973 UTC+02:00
64.19395187,"8,133204460E0","-9,165108681E0","-4,137788773E0",,,,,,,,,,,,,,,,,,,,,2024-06-05 09:57:22.166951870+02:00,bike,2024-06-05 09:56:17.973 UTC+02:00
64.29395187,"3,958925009E0","-8,306683540E0","-1,651047587E0",,,,,,,,,,,,,,,,,,,,,2024-06-05 09:57:22.266951870+02:00,bike,2024-06-05 09:56:17.973 UTC+02:00
64.39395187,"5,556134224E0","-8,915059090E0","-2,396411896E0",,,,,,,,,,,,,,,,,,,,,2024-06-05 09:57:22.366951870+02:00,bike,2024-06-05 09:56:17.973 UTC+02:00
64.49395187,"6,153741837E0","-1,003549862E1","-3,730410576E0",,,,,,,,,,,,,,,,,,,,,2024-06-05 09:57:22.466951870+02:00,bike,2024-06-05 09:56:17.973 UTC+02:00
64.59395187,"4,996213913E0","-6,246463299E0","-3,078964472E0",,,,,,,,,,,,,,,,,,,,,2024-06-05 09:57:22.566951870+02:00,bike,2024-06-05 09:56:17.973 UTC+02:00
64.69395187,"8,042875290E0","-5,755336761E0","-5,982655048E0",,,,,,,,,,,,,,,,,,,,,2024-06-05 09:57:22.666951870+02:00,bike,2024-06-05 09:56:17.973 UTC+02:00
64.79395187,"3,000599623E0","-2,074577332E0","-2,998805046E0",,,,,,,,,,,,,,,,,,,,,2024-06-05 09:57:22.766951870+02:00,bike,2024-06-05 09:56:17.973 UTC+02:00
64.89395187,"6,550950050E0","-3,372085333E0","-4,168895245E0",,,,,,,,,,,,,,,,,,,,,2024-06-05 09:57:22.866951870+02:00,bike,2024-06-05 09:56:17.973 UTC+02:00
64.99395187,"5,090131760E0","-4,819743156E0","-3,005983353E0",,,,,,,,,,,,,,,,,,,,,2024-06-05 09:57:22.966951870+02:00,bike,2024-06-05 09:56:17.973 UTC+02:00
65.09395187,"5,415555954E0","-7,839485168E0","-3,100499868E0",,,,,,,,,,,,,,,,,,,,,2024-06-05 09:57:23.066951870+02:00,bike,2024-06-05 09:56:17.973 UTC+02:00
65.19395187,"8,459226608E0","-1,173679543E1","-5,539384365E0",,,,,,,,,,,,,,,,,,,,,2024-06-05 09:57:23.166951870+02:00,bike,2024-06-05 09:56:17.973 UTC+02:00
65.29395187,"8,401200294E0","-9,787840843E0","-4,255635262E0",,,,,,,,,,,,,,,,,,,,,2024-06-05 09:57:23.266951870+02:00,bike,2024-06-05 09:56:17.973 UTC+02:00
65.39395187,"4,974080086E0","-7,591827869E0","-1,512263894E0",,,,,,,,,,,,,,,,,,,,,2024-06-05 09:57:23.366951870+02:00,bike,2024-06-05 09:56:17.973 UTC+02:00
65.49395187,"7,240083218E0","-7,376473904E0","-4,135395527E0",,,,,,,,,,,,,,,,,,,,,2024-06-05 09:57:23.466951870+02:00,bike,2024-06-05 09:56:17.973 UTC+02:00
65.59395187,"1,023230743E1","-9,471389771E0","-3,375076294E0",,,,,,,,,,,,,,,,,,,,,2024-06-05 09:57:23.566951870+02:00,bike,2024-06-05 09:56:17.973 UTC+02:00
65.69395187,"1,672582984E0","-3,643072367E0","-1,716850281E0",,,,,,,,,,,,,,,,,,,,,2024-06-05 09:57:23.666951870+02:00,bike,2024-06-05 09:56:17.973 UTC+02:00
65.79395187,"3,799204111E0","-3,316452265E0","-3,169293642E0",,,,,,,,,,,,,,,,,,,,,2024-06-05 09:57:23.766951870+02:00,bike,2024-06-05 09:56:17.973 UTC+02:00
65.89395187,"5,930611134E0","-5,674578667E0","-4,371088982E0",,,,,,,,,,,,,,,,,,,,,2024-06-05 09:57:23.866951870+02:00,bike,2024-06-05 09:56:17.973 UTC+02:00
65.99395187,"6,786045074E0","-6,123831272E0","-2,245664120E0",,,,,,,,,,,,,,,,,,,,,2024-06-05 09:57:23.966951870+02:00,bike,2024-06-05 09:56:17.973 UTC+02:00
66.09395187,"6,300302029E0","-1,100219822E1","-4,540380955E0",,,,,,,,,,,,,,,,,,,,,2024-06-05 09:57:24.066951870+02:00,bike,2024-06-05 09:56:17.973 UTC+02:00
66.19395187,"6,342774391E0","-9,657432556E0","-1,895115495E0",,,,,,,,,,,,,,,,,,,,,2024-06-05 09:57:24.166951870+02:00,bike,2024-06-05 09:56:17.973 UTC+02:00
66.29395187,"4,242474556E0","-7,838288784E0","-3,384647608E0",,,,,,,,,,,,,,,,,,,,,2024-06-05 09:57:24.266951870+02:00,bike,2024-06-05 09:56:17.973 UTC+02:00
66.39395187,"6,831508636E0","-7,880163193E0","-2,008176327E0",,,,,,,,,,,,,,,,,,,,,2024-06-05 09:57:24.366951870+02:00,bike,2024-06-05 09:56:17.973 UTC+02:00
66.49395187,"7,249654293E0","-6,372684956E0","-3,312862873E0",,,,,,,,,,,,,,,,,,,,,2024-06-05 09:57:24.466951870+02:00,bike,2024-06-05 09:56:17.973 UTC+02:00
66.59395187,"2,312064886E0","-3,092125177E0","-2,627917528E0",,,,,,,,,,,,,,,,,,,,,2024-06-05 09:57:24.566951870+02:00,bike,2024-06-05 09:56:17.973 UTC+02:00
66.69395187,"2,137987137E0","-1,019940615E0","-3,769891977E0",,,,,,,,,,,,,,,,,,,,,2024-06-05 09:57:24.666951870+02:00,bike,2024-06-05 09:56:17.973 UTC+02:00
66.79395187,"6,074778557E0","-5,786443233E0","-3,680161238E0",,,,,,,,,,,,,,,,,,,,,2024-06-05 09:57:24.766951870+02:00,bike,2024-06-05 09:56:17.973 UTC+02:00
66.89395187,"6,324230194E0","-7,819744587E0","-2,709871531E0",,,,,,,,,,,,,,,,,,,,,2024-06-05 09:57:24.866951870+02:00,bike,2024-06-05 09:56:17.973 UTC+02:00
66.99395187,"6,738786697E0","-1,136172009E1","-5,309673309E0",,,,,,,,,,,,,,,,,,,,,2024-06-05 09:57:24.966951870+02:00,bike,2024-06-05 09:56:17.973 UTC+02:00
67.09395187,"6,886543751E0","-1,016052341E1","-4,342973232E0",,,,,,,,,,,,,,,,,,,,,2024-06-05 09:57:25.066951870+02:00,bike,2024-06-05 09:56:17.973 UTC+02:00
67.19395187,"4,688735962E0","-8,432307243E0","-2,122433662E0",,,,,,,,,,,,,,,,,,,,,2024-06-05 09:57:25.166951870+02:00,bike,2024-06-05 09:56:17.973 UTC+02:00
67.29395187,"6,035895348E0","-5,955137253E0","-2,797209740E0",,,,,,,,,,,,,,,,,,,,,2024-06-05 09:57:25.266951870+02:00,bike,2024-06-05 09:56:17.973 UTC+02:00
67.39395187,"1,043569756E1","-7,969893932E0","-6,771090031E0",,,,,,,,,,,,,,,,,,,,,2024-06-05 09:57:25.366951870+02:00,bike,2024-06-05 09:56:17.973 UTC+02:00
67.49395187,"1,369890928E0","-3,799802303E0","-3,134597778E0",,,,,,,,,,,,,,,,,,,,,2024-06-05 09:57:25.466951870+02:00,bike,2024-06-05 09:56:17.973 UTC+02:00
67.59395187,"4,963910580E0","-2,103889227E0","-3,114258766E0",,,,,,,,,,,,,,,,,,,,,2024-06-05 09:57:25.566951870+02:00,bike,2024-06-05 09:56:17.973 UTC+02:00
67.69395187,"7,585845947E0","-4,858027935E0","-3,739981890E0",,,,,,,,,,,,,,,,,,,,,2024-06-05 09:57:25.666951870+02:00,bike,2024-06-05 09:56:17.973 UTC+02:00
67.79395187,"7,050451756E0","-8,651848793E0","-3,565903902E0",,,,,,,,,,,,,,,,,,,,,2024-06-05 09:57:25.766951870+02:00,bike,2024-06-05 09:56:17.973 UTC+02:00
67.89395187,"5,059623718E0","-7,723433495E0","-3,829712629E0",,,,,,,,,,,,,,,,,,,,,2024-06-05 09:57:25.866951870+02:00,bike,2024-06-05 09:56:17.973 UTC+02:00
67.99395187,"5,813961029E0","-8,321041107E0","-4,143770695E0",,,,,,,,,,,,,,,,,,,,,2024-06-05 09:57:25.966951870+02:00,bike,2024-06-05 09:56:17.973 UTC+02:00
68.09395187,"8,679366112E0","-1,327179050E1","-4,409972191E0",,,,,,,,,,,,,,,,,,,,,2024-06-05 09:57:26.066951870+02:00,bike,2024-06-05 09:56:17.973 UTC+02:00
68.19395187,"5,295914650E0","-4,033700943E0","-3,075973511E0",,,,,,,,,,,,,,,,,,,,,2024-06-05 09:57:26.166951870+02:00,bike,2024-06-05 09:56:17.973 UTC+02:00
68.29395187,"4,960919380E0","-7,155735970E0","-4,089334011E0",,,,,,,,,,,,,,,,,,,,,2024-06-05 09:57:26.266951870+02:00,bike,2024-06-05 09:56:17.973 UTC+02:00
68.39395187,"2,154138565E0","-1,744965911E0","-2,596212626E0",,,,,,,,,,,,,,,,,,,,,2024-06-05 09:57:26.366951870+02:00,bike,2024-06-05 09:56:17.973 UTC+02:00
68.49395187,"2,081157446E0","-4,809573591E-1","-1,020538807E0",,,,,,,,,,,,,,,,,,,,,2024-06-05 09:57:26.466951870+02:00,bike,2024-06-05 09:56:17.973 UTC+02:00
68.59395187,"8,845068932E0","-1,383230972E1","-4,180859566E0",,,,,,,,,,,,,,,,,,,,,2024-06-05 09:57:26.566951870+02:00,bike,2024-06-05 09:56:17.973 UTC+02:00
68.69395187,"5,130809784E0","-7,998009682E0","-3,708875179E0",,,,,,,,,,,,,,,,,,,,,2024-06-05 09:57:26.666951870+02:00,bike,2024-06-05 09:56:17.973 UTC+02:00
68.79395187,"6,522236347E0","-7,914859295E0","-3,811168194E0",,,,,,,,,,,,,,,,,,,,,2024-06-05 09:57:26.766951870+02:00,bike,2024-06-05 09:56:17.973 UTC+02:00
68.89395187,"9,762118340E0","-1,064267731E1","-4,128815651E0",,,,,,,,,,,,,,,,,,,,,2024-06-05 09:57:26.866951870+02:00,bike,2024-06-05 09:56:17.973 UTC+02:00
68.99395187,"7,648657799E0","-7,977670670E0","-4,255036831E0",,,,,,,,,,,,,,,,,,,,,2024-06-05 09:57:26.966951870+02:00,bike,2024-06-05 09:56:17.973 UTC+02:00
69.09395187,"2,500499725E0","-2,764308453E0","-4,157529473E-1",,,,,,,,,,,,,,,,,,,,,2024-06-05 09:57:27.066951870+02:00,bike,2024-06-05 09:56:17.973 UTC+02:00
69.19395187,"6,811169624E0","-4,543970108E0","-3,279961586E0",,,,,,,,,,,,,,,,,,,,,2024-06-05 09:57:27.166951870+02:00,bike,2024-06-05 09:56:17.973 UTC+02:00
69.29395187,"6,042475224E0","-3,099901676E0","-3,831507206E0",,,,,,,,,,,,,,,,,,,,,2024-06-05 09:57:27.266951870+02:00,bike,2024-06-05 09:56:17.973 UTC+02:00
69.39395187,"5,672784328E0","-5,768496990E0","-1,672582984E0",,,,,,,,,,,,,,,,,,,,,2024-06-05 09:57:27.366951870+02:00,bike,2024-06-05 09:56:17.973 UTC+02:00
69.49395187,"6,640681267E0","-9,921240807E0","-4,225126743E0",,,,,,,,,,,,,,,,,,,,,2024-06-05 09:57:27.466951870+02:00,bike,2024-06-05 09:56:17.973 UTC+02:00
69.59395187,"5,516652584E0","-8,276773453E0","-3,541377544E0",,,,,,,,,,,,,,,,,,,,,2024-06-05 09:57:27.566951870+02:00,bike,2024-06-05 09:56:17.973 UTC+02:00
69.69395187,"6,501298904E0","-1,010189915E1","-3,983451605E0",,,,,,,,,,,,,,,,,,,,,2024-06-05 09:57:27.666951870+02:00,bike,2024-06-05 09:56:17.973 UTC+02:00
69.79395187,"6,241079807E0","-7,950153351E0","-1,939980984E0",,,,,,,,,,,,,,,,,,,,,2024-06-05 09:57:27.766951870+02:00,bike,2024-06-05 09:56:17.973 UTC+02:00
69.89395187,"7,383054256E0","-7,491329670E0","-3,997808456E0",,,,,,,,,,,,,,,,,,,,,2024-06-05 09:57:27.866951870+02:00,bike,2024-06-05 09:56:17.973 UTC+02:00
69.99395187,"7,445865631E0","-6,282954216E0","-3,765106440E0",,,,,,,,,,,,,,,,,,,,,2024-06-05 09:57:27.966951870+02:00,bike,2024-06-05 09:56:17.973 UTC+02:00
70.09395187,"1,937588096E0","-1,040877819E0","-2,457428932E0",,,,,,,,,,,,,,,,,,,,,2024-06-05 09:57:28.066951870+02:00,bike,2024-06-05 09:56:17.973 UTC+02:00
70.19395187,"7,844869137E0","-5,635695457E0","-3,876971006E0",,,,,,,,,,,,,,,,,,,,,2024-06-05 09:57:28.166951870+02:00,bike,2024-06-05 09:56:17.973 UTC+02:00
70.29395187,"6,676573277E0","-7,206583500E0","-3,187239647E0",,,,,,,,,,,,,,,,,,,,,2024-06-05 09:57:28.266951870+02:00,bike,2024-06-05 09:56:17.973 UTC+02:00
70.39395187,"5,764309883E0","-7,631309509E0","-3,728017569E0",,,,,,,,,,,,,,,,,,,,,2024-06-05 09:57:28.366951870+02:00,bike,2024-06-05 09:56:17.973 UTC+02:00
70.49395187,"8,002795219E0","-1,020060253E1","-4,342973232E0",,,,,,,,,,,,,,,,,,,,,2024-06-05 09:57:28.466951870+02:00,bike,2024-06-05 09:56:17.973 UTC+02:00
70.59395187,"4,169493675E0","-8,997611046E0","-2,321636200E0",,,,,,,,,,,,,,,,,,,,,2024-06-05 09:57:28.566951870+02:00,bike,2024-06-05 09:56:17.973 UTC+02:00
70.69395187,"6,915257454E0","-7,194021225E0","-2,857628345E0",,,,,,,,,,,,,,,,,,,,,2024-06-05 09:57:28.666951870+02:00,bike,2024-06-05 09:56:17.973 UTC+02:00
70.79395187,"6,001199245E0","-6,281159401E0","-3,182454109E0",,,,,,,,,,,,,,,,,,,,,2024-06-05 09:57:28.766951870+02:00,bike,2024-06-05 09:56:17.973 UTC+02:00
70.89395187,"4,007977962E0","-5,063810825E0","-4,074976921E0",,,,,,,,,,,,,,,,,,,,,2024-06-05 09:57:28.866951870+02:00,bike,2024-06-05 09:56:17.973 UTC+02:00
70.99395187,"1,618744493E0","-7,220342159E-1","-1,769492388E0",,,,,,,,,,,,,,,,,,,,,2024-06-05 09:57:28.966951870+02:00,bike,2024-06-05 09:56:17.973 UTC+02:00
71.09395187,"4,375276089E0","-4,945366383E0","-2,405385017E0",,,,,,,,,,,,,,,,,,,,,2024-06-05 09:57:29.066951870+02:00,bike,2024-06-05 09:56:17.973 UTC+02:00
71.19395187,"7,154539585E0","-9,087342262E0","-3,367299557E0",,,,,,,,,,,,,,,,,,,,,2024-06-05 09:57:29.166951870+02:00,bike,2024-06-05 09:56:17.973 UTC+02:00
71.29395187,"6,994818687E0","-9,425926208E0","-3,699902058E0",,,,,,,,,,,,,,,,,,,,,2024-06-05 09:57:29.266951870+02:00,bike,2024-06-05 09:56:17.973 UTC+02:00
71.39395187,"6,362515450E0","-9,863813400E0","-3,422334671E0",,,,,,,,,,,,,,,,,,,,,2024-06-05 09:57:29.366951870+02:00,bike,2024-06-05 09:56:17.973 UTC+02:00
71.49395187,"9,183652878E0","-9,680164337E0","-3,196810961E0",,,,,,,,,,,,,,,,,,,,,2024-06-05 09:57:29.466951870+02:00,bike,2024-06-05 09:56:17.973 UTC+02:00
71.59395187,"6,014957905E0","-6,872784615E0","-3,413361549E0",,,,,,,,,,,,,,,,,,,,,2024-06-05 09:57:29.566951870+02:00,bike,2024-06-05 09:56:17.973 UTC+02:00
71.69395187,"3,315255880E0","-4,846662045E0","-2,868994236E0",,,,,,,,,,,,,,,,,,,,,2024-06-05 09:57:29.666951870+02:00,bike,2024-06-05 09:56:17.973 UTC+02:00
71.79395187,"2,931207657E0","-2,456830740E0","-2,688336134E0",,,,,,,,,,,,,,,,,,,,,2024-06-05 09:57:29.766951870+02:00,bike,2024-06-05 09:56:17.973 UTC+02:00
71.89395187,"7,417750359E0","-6,504290104E0","-2,683550596E0",,,,,,,,,,,,,,,,,,,,,2024-06-05 09:57:29.866951870+02:00,bike,2024-06-05 09:56:17.973 UTC+02:00
71.99395187,"7,911269665E0","-1,322213936E1","-2,611167669E0",,,,,,,,,,,,,,,,,,,,,2024-06-05 09:57:29.966951870+02:00,bike,2024-06-05 09:56:17.973 UTC+02:00
72.09395187,"6,808776855E0","-6,346961975E0","-3,649054527E0",,,,,,,,,,,,,,,,,,,,,2024-06-05 09:57:30.066951870+02:00,bike,2024-06-05 09:56:17.973 UTC+02:00
72.19395187,"5,726622581E0","-1,015992451E1","-3,653241873E0",,,,,,,,,,,,,,,,,,,,,2024-06-05 09:57:30.166951870+02:00,bike,2024-06-05 09:56:17.973 UTC+02:00
72.29395187,"8,458029747E0","-1,107458115E1","-2,928814888E0",,,,,,,,,,,,,,,,,,,,,2024-06-05 09:57:30.266951870+02:00,bike,2024-06-05 09:56:17.973 UTC+02:00
72.39395187,"4,205984116E0","-5,097908497E0","-2,274377823E0",,,,,,,,,,,,,,,,,,,,,2024-06-05 09:57:30.366951870+02:00,bike,2024-06-05 09:56:17.973 UTC+02:00
72.49395187,"4,359723091E0","-4,004986763E0","-2,754737139E0",,,,,,,,,,,,,,,,,,,,,2024-06-05 09:57:30.466951870+02:00,bike,2024-06-05 09:56:17.973 UTC+02:00
72.59395187,"4,394418716E0","-2,517249346E0","-2,829512835E0",,,,,,,,,,,,,,,,,,,,,2024-06-05 09:57:30.566951870+02:00,bike,2024-06-05 09:56:17.973 UTC+02:00
72.69395187,"6,255436420E0","-7,322037220E0","-2,395215511E0",,,,,,,,,,,,,,,,,,,,,2024-06-05 09:57:30.666951870+02:00,bike,2024-06-05 09:56:17.973 UTC+02:00
72.79395187,"8,660821915E0","-1,157348537E1","-3,570091486E0",,,,,,,,,,,,,,,,,,,,,2024-06-05 09:57:30.766951870+02:00,bike,2024-06-05 09:56:17.973 UTC+02:00
72.89395187,"7,447660446E0","-9,933204651E0","-4,173680782E0",,,,,,,,,,,,,,,,,,,,,2024-06-05 09:57:30.866951870+02:00,bike,2024-06-05 09:56:17.973 UTC+02:00
72.99395187,"4,372285366E0","-8,851649284E0","-2,441875458E0",,,,,,,,,,,,,,,,,,,,,2024-06-05 09:57:30.966951870+02:00,bike,2024-06-05 09:56:17.973 UTC+02:00
73.09395187,"8,530412674E0","-9,068798065E0","-2,622533560E0",,,,,,,,,,,,,,,,,,,,,2024-06-05 09:57:31.066951870+02:00,bike,2024-06-05 09:56:17.973 UTC+02:00
73.19395187,"6,556932449E0","-6,166902065E0","-3,587439299E0",,,,,,,,,,,,,,,,,,,,,2024-06-05 09:57:31.166951870+02:00,bike,2024-06-05 09:56:17.973 UTC+02:00
73.29395187,"1,960319996E0","-3,469592810E0","-1,800599098E0",,,,,,,,,,,,,,,,,,,,,2024-06-05 09:57:31.266951870+02:00,bike,2024-06-05 09:56:17.973 UTC+02:00
73.39395187,"5,115256786E0","-3,561716557E0","-2,407777786E0",,,,,,,,,,,,,,,,,,,,,2024-06-05 09:57:31.366951870+02:00,bike,2024-06-05 09:56:17.973 UTC+02:00
73.49395187,"6,217151642E0","-8,069794655E0","-2,520838737E0",,,,,,,,,,,,,,,,,,,,,2024-06-05 09:57:31.466951870+02:00,bike,2024-06-05 09:56:17.973 UTC+02:00
73.59395187,"8,930612564E0","-1,164526939E1","-4,189832687E0",,,,,,,,,,,,,,,,,,,,,2024-06-05 09:57:31.566951870+02:00,bike,2024-06-05 09:56:17.973 UTC+02:00
73.69395187,"7,039085865E0","-8,560322762E0","-3,459423304E0",,,,,,,,,,,,,,,,,,,,,2024-06-05 09:57:31.666951870+02:00,bike,2024-06-05 09:56:17.973 UTC+02:00
73.79395187,"5,660222054E0","-1,017846966E1","-2,352742910E0",,,,,,,,,,,,,,,,,,,,,2024-06-05 09:57:31.766951870+02:00,bike,2024-06-05 09:56:17.973 UTC+02:00
73.89395187,"6,522236347E0","-6,376872540E0","-3,172284603E0",,,,,,,,,,,,,,,,,,,,,2024-06-05 09:57:31.866951870+02:00,bike,2024-06-05 09:56:17.973 UTC+02:00
73.99395187,"6,707081795E0","-5,946164131E0","-3,034099102E0",,,,,,,,,,,,,,,,,,,,,2024-06-05 09:57:31.966951870+02:00,bike,2024-06-05 09:56:17.973 UTC+02:00
74.09395187,"2,682354212E0","-2,270788670E0","-2,469991207E0",,,,,,,,,,,,,,,,,,,,,2024-06-05 09:57:32.066951870+02:00,bike,2024-06-05 09:56:17.973 UTC+02:00
74.19395187,"4,737788677E0","-2,286940336E0","-2,944966555E0",,,,,,,,,,,,,,,,,,,,,2024-06-05 09:57:32.166951870+02:00,bike,2024-06-05 09:56:17.973 UTC+02:00
74.29395187,"6,625127792E0","-8,123632431E0","-3,002394199E0",,,,,,,,,,,,,,,,,,,,,2024-06-05 09:57:32.266951870+02:00,bike,2024-06-05 09:56:17.973 UTC+02:00
74.39395187,"7,000202656E0","-1,046261692E1","-3,203989506E0",,,,,,,,,,,,,,,,,,,,,2024-06-05 09:57:32.366951870+02:00,bike,2024-06-05 09:56:17.973 UTC+02:00
74.49395187,"6,586244106E0","-1,027238750E1","-3,354737282E0",,,,,,,,,,,,,,,,,,,,,2024-06-05 09:57:32.466951870+02:00,bike,2024-06-05 09:56:17.973 UTC+02:00
74.59395187,"6,191428661E0","-8,599804878E0","-3,557528973E0",,,,,,,,,,,,,,,,,,,,,2024-06-05 09:57:32.566951870+02:00,bike,2024-06-05 09:56:17.973 UTC+02:00
74.69395187,"7,999804497E0","-8,346165657E0","-2,800798893E0",,,,,,,,,,,,,,,,,,,,,2024-06-05 09:57:32.666951870+02:00,bike,2024-06-05 09:56:17.973 UTC+02:00
74.79395187,"6,597609997E0","-6,882356167E0","-3,178864956E0",,,,,,,,,,,,,,,,,,,,,2024-06-05 09:57:32.766951870+02:00,bike,2024-06-05 09:56:17.973 UTC+02:00
74.89395187,"4,073780537E0","-4,034298897E0","-2,501097918E0",,,,,,,,,,,,,,,,,,,,,2024-06-05 09:57:32.866951870+02:00,bike,2024-06-05 09:56:17.973 UTC+02:00
74.99395187,"2,392224550E0","-2,671586514E0","-1,751546144E0",,,,,,,,,,,,,,,,,,,,,2024-06-05 09:57:32.966951870+02:00,bike,2024-06-05 09:56:17.973 UTC+02:00
75.09395187,"6,736992359E0","-5,523830891E0","-2,754138947E0",,,,,,,,,,,,,,,,,,,,,2024-06-05 09:57:33.066951870+02:00,bike,2024-06-05 09:56:17.973 UTC+02:00
75.19395187,"6,097510338E0","-8,184649467E0","-2,725425005E0",,,,,,,,,,,,,,,,,,,,,2024-06-05 09:57:33.166951870+02:00,bike,2024-06-05 09:56:17.973 UTC+02:00
75.29395187,"6,863811970E0","-8,974281311E0","-3,604787350E0",,,,,,,,,,,,,,,,,,,,,2024-06-05 09:57:33.266951870+02:00,bike,2024-06-05 09:56:17.973 UTC+02:00
75.39395187,"6,276971817E0","-9,382855415E0","-3,078964472E0",,,,,,,,,,,,,,,,,,,,,2024-06-05 09:57:33.366951870+02:00,bike,2024-06-05 09:56:17.973 UTC+02:00
75.49395187,"5,337789059E0","-9,963115692E0","-2,274976015E0",,,,,,,,,,,,,,,,,,,,,2024-06-05 09:57:33.466951870+02:00,bike,2024-06-05 09:56:17.973 UTC+02:00
75.59395187,"8,240880966E0","-8,955737114E0","-2,703291416E0",,,,,,,,,,,,,,,,,,,,,2024-06-05 09:57:33.566951870+02:00,bike,2024-06-05 09:56:17.973 UTC+02:00
75.69395187,"7,125825882E0","-7,159923553E0","-2,915654421E0",,,,,,,,,,,,,,,,,,,,,2024-06-05 09:57:33.666951870+02:00,bike,2024-06-05 09:56:17.973 UTC+02:00
75.79395187,"5,880361557E0","-4,823930264E0","-2,769692183E0",,,,,,,,,,,,,,,,,,,,,2024-06-05 09:57:33.766951870+02:00,bike,2024-06-05 09:56:17.973 UTC+02:00
75.89395187,"3,587439299E0","-1,618146300E0","-2,469991207E0",,,,,,,,,,,,,,,,,,,,,2024-06-05 09:57:33.866951870+02:00,bike,2024-06-05 09:56:17.973 UTC+02:00
