"Time (s)";"Linear Acceleration x (m/s^2)";"Linear Acceleration y (m/s^2)";"Linear Acceleration z (m/s^2)"
6,105709400E-2;-1,373260260E0;2,120055437E0;-1,309125900E0
1,597504550E-1;1,078817368E0;-1,076961875E0;1,046566010E0
2,584398810E-1;2,976272702E-1;3,427639008E-1;-2,746522427E0
3,571246460E-1;1,990607977E0;4,704868793E-2;6,378116608E-1
4,558092090E-1;2,389145136E0;-1,680996299E0;-6,095209122E-1
5,544801200E-1;1,324833870E0;-2,054649830E0;-6,208066940E-1
6,531792600E-1;-1,251397133E-1;-3,784010410E0;-4,731746674E0
7,518483710E-1;-1,981146336E0;-4,554776669E0;-6,665569782E0
8,505486500E-1;5,470638275E-1;-5,209285736E0;3,070526600E0
9,492331510E-1;1,146428490E1;-1,342778206E0;7,059504509E0
1,047904347E0;1,338867188E1;1,000446796E0;1,785014868E0
1,146603141E0;-2,334291935E-1;-1,886807442E0;-2,199360847E0
1,245276982E0;1,866509438E0;5,636059761E0;-3,038382530E0
1,343970842E0;1,301769257E0;8,710784912E0;-5,552675724E-1
1,442657917E0;-6,149000168E0;-1,103485680E1;8,893045425E0
1,541328574E0;1,057022095E0;5,557351112E-1;1,619119406E0
1,640022455E0;3,850449562E0;-4,310424805E0;-3,628682375E0
1,738708981E0;7,124314308E0;-1,078002930E0;3,104040325E-1
1,837395923E0;-1,297589302E0;5,231102943E0;1,326614618E0
1,936080089E0;2,051970005E0;2,271466732E0;1,708482265E0
2,034752191E0;-6,354098320E-1;4,071400642E0;-9,988195896E-1
2,133450262E0;-3,662419081E0;4,660703659E0;2,352192402E0
2,232139851E0;-1,600332856E-1;-1,366571426E0;1,551267147E0
2,330818127E0;-3,028222799E0;-1,017035484E0;3,344647884E0
2,429504175E0;6,684675217E-1;-1,998395920E0;-3,979105473E0
2,528173508E0;2,815530539E0;-3,531507492E0;-4,981949806E0
2,626875100E0;-1,069875717E0;-5,927484512E0;-4,000117779E-1
2,725546601E0;3,926688194E0;-2,473161221E0;-5,182785988E-1
2,824229383E0;3,090340614E0;-1,112000704E0;2,256298065E-1
2,922932837E0;2,489610195E0;-8,385333419E-1;1,147260904E0
3,021595427E0;1,036301613E0;-1,394677162E-1;-2,063217163E-1
3,120301087E0;2,214199543E0;-1,281589866E-1;1,140227318E-1
3,218963850E0;1,131146908E0;-9,578026533E-1;-9,876089096E-1
3,317668005E0;1,368142128E0;-1,019379377E0;-2,753701210E-1
3,416339353E0;-1,716709137E-1;-3,181784153E-1;-2,302246094E-1
3,515014750E0;3,411484480E0;-1,539953709E0;6,683454514E-1
3,613710136E0;-6,429977417E-1;2,618787289E-1;2,448587894E0
3,712404933E0;-2,755231857E-1;-2,723250389E-1;-2,099123001E-1
3,811081622E0;-4,813204408E-1;-1,703166008E0;3,924837112E-1
3,909775950E0;-2,317728758E0;-4,759464264E-1;1,311062813E0
4,008448184E0;-1,654770851E0;3,107595444E-1;1,628767490E0
4,107140925E0;1,058070660E-1;-4,644690514E0;-2,255633354E0
4,205822690E0;1,407128930E0;-9,110293388E-1;1,328133106E0
4,304506540E0;-1,115315199E0;2,644771576E0;-4,966683388E-1
4,403200431E0;2,638658047E0;-1,621155262E0;-1,632094383E-1
4,501870631E0;2,838295937E0;5,219116211E-1;9,662985802E-1
4,600557269E0;1,355581045E0;2,313237190E-1;1,048011303E0
4,699248382E0;9,688128829E-1;1,038054943E0;4,034638405E-1
4,797935609E0;4,911571026E0;-3,163776398E-1;-2,501410484E0
4,896628676E0;1,815037727E0;1,514936209E0;5,764827728E-1
4,995295182E0;7,441573143E-1;-9,378964901E-1;5,594545364E0
5,093980498E0;-4,408803463E0;-5,491473675E-1;8,591917992E0
5,192677593E0;1,955056906E0;4,428186417E-1;-1,166391373E-1
5,291363112E0;2,620445251E0;-1,231246471E0;-6,518049240E-1
5,390046648E0;3,684118390E-1;5,184988976E0;9,103212357E-1
5,488718821E0;2,379881620E0;-2,532854080E-1;3,877415657E-1
5,587404277E0;1,008435726E0;-4,173529625E0;-2,489384174E0
5,686087558E0;2,100743532E0;-3,956098557E-1;-3,467130184E0
5,784784216E0;2,509734869E0;1,527376175E-1;1,952805519E0
5,883467374E0;1,408376455E0;-3,150758743E-1;3,063526154E-1
5,982140474E0;1,995295048E0;-2,141438484E0;2,461176395E0
6,080837477E0;-1,623269320E0;-8,549840450E-1;3,228660107E0
6,179525671E0;-1,425875664E0;3,396850109E0;2,594980717E0
6,278210407E0;-5,143984556E-1;1,474547386E0;7,614855766E-1
6,376880442E0;2,289127350E0;-1,532542229E0;-1,651545048E0
6,475567660E0;1,909790158E0;-1,160940170E0;-2,415366173E0
6,574262945E0;9,566292763E-1;-3,024317741E0;-1,651518822E0
6,672942369E0;2,280974388E-1;9,633822441E-1;1,813282967E0
6,771632641E0;2,020351171E0;-1,545354366E0;-2,548849106E0
6,870315128E0;2,782977581E0;-5,601201057E-1;2,364621162E-1
6,968979111E0;2,360216379E0;-1,207370758E0;-1,486988068E-1
7,067674843E0;-3,705671787E0;1,137456656E0;5,559797287E0
7,166359049E0;-4,980301857E-2;1,883386374E0;5,018609047E0
7,265044435E0;-7,312738895E-1;6,259346008E-2;4,302759171E-1
7,363739324E0;2,266020775E0;-1,568937778E0;-4,413609505E-1
7,462412016E0;1,016758680E-1;-7,634868622E-1;-1,561316967E0
7,561109497E0;2,135540485E0;-1,372263432E0;-3,159404755E0
7,659800468E0;2,313048840E0;-1,988689899E0;1,227655411E0
7,758478643E0;2,150389671E0;1,462447643E0;2,791246891E0
7,857185330E0;3,857092857E-1;-1,648061275E0;8,903512955E-1
7,955834187E0;-1,367029667E0;1,198715925E0;3,763194561E0
8,054530763E0;-1,294429779E0;2,657361031E-1;1,370539665E0
8,153218123E0;-6,968274117E-1;2,775160551E0;2,265250683E0
8,251900998E0;-1,819300652E-2;-1,020578861E0;1,966032982E-1
8,350584492E0;2,258805990E0;-1,812458038E0;-1,364274979E0
8,449249758E0;1,224679232E0;2,969484329E-1;-1,219487667E0
8,547953505E0;-3,247971535E-1;-2,519171715E0;-1,097011566E-2
8,646640407E0;-5,269808769E-1;-1,069860935E0;3,578147888E-1
8,745311400E0;1,123393774E0;2,131447315E0;-3,189420700E-1
8,844007986E0;2,617699862E0;-2,436381340E0;-2,958039761E0
8,942681013E0;-1,678582311E0;3,018210411E0;3,196895599E0
9,041373969E0;-2,543083668E0;2,435992718E0;-5,733623505E-1
9,140060037E0;-1,108239651E0;2,336781025E0;1,270750523E0
9,238745251E0;-1,684653044E0;8,398399353E-1;2,854729176E0
9,337427667E0;1,699597955E0;-3,320833206E0;3,595957756E-1
9,436103429E0;1,473754764E0;-1,486101151E-1;-6,957960129E-1
9,534784198E0;1,449823618E0;-5,286979675E-2;1,221278191E0
9,633508535E0;2,038423538E0;-2,102264881E0;-9,559431076E-1
9,732169906E0;3,164279461E-1;-1,343525887E0;5,597944260E-1
9,830855230E0;2,359708309E0;-5,796980858E-1;3,239498138E-1
9,929525083E0;1,350528002E0;-4,152322769E0;1,525083542E0
1,002821144E1;-1,907043815E0;-2,530929089E0;6,354522705E0
1,012691520E1;-3,132200956E0;1,048844576E0;4,774816513E0
1,022557909E1;1,543610811E0;8,090722561E-1;-2,163406372E0
1,032427905E1;-3,669725657E-1;7,587623596E-2;3,662938595E0
1,042293566E1;3,251944542E0;-4,364924431E-1;3,822973967E0
1,052163494E1;4,063126564E0;-4,555476189E0;-5,596318722E0
1,062031779E1;1,697755337E0;-1,493930817E-3;1,310286999E0
1,071901475E1;1,199217200E0;-2,718424797E0;2,026282310E0
1,081769722E1;6,160485744E-2;5,060505867E-1;1,368601799E0
1,091636824E1;6,619863510E-1;2,453570366E-1;1,180934906E-2
1,101506563E1;1,315516591E0;-4,032649994E0;1,822639465E0
1,111374996E1;-1,705119610E-1;9,454298019E-2;3,589165688E0
1,121244123E1;1,116812468E0;-2,222633362E-1;2,714073181E0
1,131111124E1;-2,107040882E-1;2,229911804E0;3,017764091E0
1,140978976E1;1,349841356E0;-1,836539268E0;1,101198673E0
1,150848571E1;3,748330355E0;-1,305248737E0;2,125330210E0
1,160717058E1;1,846124053E0;-4,964252472E0;-1,948373795E0
1,170584120E1;3,526027203E-1;-2,634897232E-1;-1,100990772E0
1,180453678E1;2,152926683E0;-4,885520935E-1;2,311869383E0
1,190321006E1;1,742713690E0;-8,867402077E-1;-1,784255028E0
1,200190589E1;9,042370319E-1;1,181016922E0;1,619527817E0
1,210059062E1;-2,024919987E0;1,467988729E0;1,345123291E0
1,219927592E1;-6,135256290E-1;-1,115113974E0;7,825412750E-1
1,229795889E1;-1,295648336E0;1,387059927E0;2,435395718E0
1,239663032E1;-1,724831343E0;3,735331774E0;2,167969227E0
1,249532661E1;1,613449574E0;-4,163738728E0;-1,905838966E0
1,259400981E1;1,906217813E0;-3,518135071E0;1,076062202E0
1,269269409E1;1,663572311E0;2,885284424E-1;-1,200727940E0
1,279137884E1;-2,124140263E-1;-1,738196373E0;-2,683358192E-1
1,289004746E1;2,265132427E0;-4,778947830E-1;-1,667329788E0
1,298873854E1;1,928773165E0;-2,580098152E0;2,006096840E0
1,308742660E1;-1,297350168E0;-3,652672291E0;2,618538380E0
1,318611197E1;-4,304632187E0;4,439952850E0;7,393499851E0
1,328479832E1;3,391387224E0;1,303371191E0;-6,258793831E0
1,338346852E1;-3,331403017E0;3,768516064E0;1,832924843E0
1,348216577E1;-2,663207054E-1;-1,425346375E0;1,310595036E0
1,358083603E1;4,326791763E0;-4,377320290E0;-5,636449337E0
1,367952886E1;6,205220699E0;-1,142936707E0;-2,756427765E0
1,377821711E1;-1,065973759E0;-5,039339066E0;-6,476693153E-1
1,387688663E1;-4,119555473E0;4,421056271E0;5,190992355E-2
1,397557065E1;2,536810398E0;-4,134618282E0;-4,302429199E0
1,407425365E1;-2,197471142E0;1,928395987E0;4,127771854E0
1,417293695E1;-7,819952965E-1;8,998367786E-1;3,126492023E0
1,427163087E1;-1,478733778E0;1,143460751E0;8,258700371E-1
1,437030534E1;2,145628929E-1;5,012210846E0;9,009790421E-1
1,446900030E1;1,815929890E0;6,892824173E-1;-1,563469887E0
1,456768747E1;-3,071188927E-2;6,405844688E-1;4,980545044E-1
1,466636787E1;3,207306862E0;-4,090551376E0;-4,258753777E0
1,476505134E1;2,652165890E0;1,717109680E-1;-3,030838013E0
1,486372121E1;-1,022271991E0;8,082790375E-1;-2,246582031E0
1,496241871E1;2,529018402E0;-1,873825550E0;-4,345718384E0
1,506108156E1;1,683054447E0;-1,011721134E0;1,415697098E0
1,515978871E1;-2,756664753E-1;-6,402735710E-1;1,128554344E-1
1,525846573E1;-1,426693439E0;1,278903961E0;-5,911045074E-1
1,535713853E1;-2,143021107E0;1,737698555E0;2,526050091E0
1,545583282E1;-1,163573742E0;8,797569275E-1;2,425034046E0
1,555451620E1;-4,771144390E-1;-5,378680229E-1;1,070022583E-1
1,565320163E1;-6,640868187E-1;-1,198207855E0;-6,749157906E-1
1,575188255E1;-3,904706955E0;-4,303711891E0;9,844272137E-1
1,585055448E1;-2,561859608E0;1,142723560E0;5,143756866E0
1,594923920E1;-3,065205097E0;4,759569168E-1;1,352544308E0
1,604793696E1;-2,317409039E0;3,018176556E0;-1,762809753E-1
1,614661679E1;-6,514792442E-1;-3,071503639E-1;-2,540313244E0
1,624530021E1;3,952503204E-3;-4,297804832E-1;-5,530957699E0
1,634396872E1;-2,053058386E0;6,478454590E0;-6,104869843E-1
1,644265037E1;-1,317951679E0;3,764999390E0;-7,173910141E-1
1,654132440E1;-2,163858175E0;-5,686741352E0;-3,194395065E0
1,664003242E1;4,361386299E-1;6,420183182E0;-1,155511189E1
1,673871342E1;4,965707779E0;-1,973631859E0;-6,106105804E0
1,683738530E1;-1,399117231E0;1,060496330E0;1,269380569E0
1,693606155E1;1,122922421E0;-5,267527103E0;-5,408447266E0
1,703476249E1;-4,570417404E-1;-7,482733727E-1;2,467959404E0
1,713343488E1;-1,583410501E0;-1,604265213E0;1,955789089E0
1,723212960E1;-8,068521023E-1;-2,045686245E0;2,803014755E0
1,733079897E1;-1,950035572E0;-8,415901661E-1;3,912379742E0
1,742948412E1;-1,862160206E0;2,238899946E0;4,113164902E0
1,752816691E1;2,231246948E0;1,947000504E0;-1,870548725E0
1,762684933E1;-5,309574604E-1;-7,681432724E0;4,407799721E0
1,772554325E1;1,784950972E0;-1,573335648E0;-2,614561081E0
1,782421303E1;-3,050642014E-1;-2,658263683E0;-1,799896240E0
1,792292334E1;1,519236088E0;-3,776070595E0;-9,796142578E-1
1,802159188E1;2,564578056E-1;-2,162380219E0;2,319600582E0
1,812027540E1;-1,821605921E0;-5,291461945E-1;2,324534893E0
1,821894918E1;-3,880824566E0;1,901707053E0;3,905839443E0
1,831762872E1;-5,248422623E-1;2,204795837E0;5,588717461E-1
1,841632435E1;3,797578812E-2;2,549805641E-1;-1,061557770E0
1,851497923E1;1,649986029E0;-1,453126907E0;-1,467390060E0
1,861369019E1;6,539127827E-1;-2,860774994E-1;-1,809606075E0
1,871237083E1;1,208296299E0;5,378971100E-1;9,885528088E-1
1,881104234E1;1,262087107E0;-2,468639851E0;1,655704975E0
1,890973315E1;2,379480839E0;-1,841103554E0;1,428413391E-1
1,900842079E1;1,441121101E-1;-1,820951462E0;1,464041233E0
1,910709096E1;-1,332364559E0;-7,028913498E-1;4,133276463E0
1,920578088E1;-1,024093151E0;3,526494741E0;3,314727306E0
1,930445488E1;-8,903284073E-1;1,188104153E0;2,013829708E0
1,940315137E1;2,244642258E0;-2,401211262E0;7,896666527E-1
1,950183191E1;2,989543915E0;-3,058676720E0;-3,493773937E0
1,960051658E1;1,644066811E0;4,122714996E-1;-1,098003387E-1
1,969919970E1;-9,915788174E-1;-1,966133118E-1;1,359661579E0
1,979786788E1;-2,329583168E-1;5,548667908E-2;-4,041199684E-1
1,989656484E1;1,261648655E0;-1,044988632E-2;8,212413788E-1
1,999523245E1;2,723254919E0;-1,033826351E0;6,955142021E-1
2,009391614E1;2,141365290E0;-2,445740700E-1;6,730046272E-1
2,019259929E1;3,383323908E0;-7,972685337E0;-3,534507275E0
2,029127165E1;1,083551884E0;4,406683445E0;1,040997505E0
2,038997252E1;2,106544971E0;8,408021927E-2;-2,644762516E0
2,048865965E1;5,109307289E0;-1,161906719E0;1,793467999E0
2,058734446E1;-1,731260300E0;-8,638455868E-1;5,801801205E0
2,068601106E1;1,069821358E0;1,750393152E0;3,463829517E0
2,078469286E1;2,301929951E0;-1,865806103E0;5,842727661E0
2,088337662E1;2,973479748E0;2,996495724E0;-1,969804764E0
2,098206010E1;3,750562668E0;-6,987085819E0;-1,710925102E-1
2,108074198E1;3,581197500E0;-2,413105488E0;1,766495705E-1
2,117942484E1;1,605526209E0;-1,526889324E0;-1,905437946E0
2,127811006E1;2,206408978E0;-1,233766556E0;2,265199184E0
2,137678848E1;1,410992146E0;-1,238154888E0;4,211225510E-1
2,147548384E1;1,234083891E0;-1,569458008E0;2,923830032E0
2,157416738E1;1,058325529E0;-2,178676367E0;2,711203098E0
2,167284581E1;2,233011723E-1;2,225010395E-1;3,050403118E0
2,177151606E1;-4,830770493E-1;1,399211884E0;-4,444370270E-1
2,187021947E1;2,279708385E-1;1,948982000E0;2,753200054E0
2,196888929E1;1,801659584E0;-1,295650959E0;4,496767998E0
2,206757456E1;1,686308384E0;-3,300104618E0;1,485684872E0
2,216624466E1;2,668351173E0;-1,813378334E0;2,046957016E0
2,226492689E1;1,207802892E0;9,517860413E-2;3,440811396E0
2,236362035E1;1,923025370E0;-1,974986076E0;-1,362036228E0
2,246230389E1;4,657967091E0;-2,209530830E0;-2,012121201E0
2,256098348E1;-2,188350201E0;1,285874844E0;2,625721455E0
2,265965529E1;4,959403038E0;-2,500374317E0;-2,070093155E0
2,275833734E1;-2,314829111E0;2,372370243E0;5,329990387E0
2,285703342E1;1,634352684E0;3,492665291E-1;1,574225903E0
2,295571529E1;1,108542442E0;5,568065643E-1;-3,347154140E0
2,305439966E1;-2,004604816E0;3,196560621E0;-1,693883896E0
2,315308272E1;-2,939846516E-1;1,041162968E0;-3,956978798E0
2,325174747E1;3,565247059E-1;-2,494832993E0;-1,111406326E0
2,335044784E1;1,263823032E0;-3,432455063E-1;-5,530463219E0
2,344914330E1;-2,584232092E0;1,557096481E0;3,010781527E0
2,354780403E1;5,468192101E-1;-1,787700176E0;-4,756994247E-1
2,364651262E1;6,195020676E-2;-2,060732841E-1;5,617575645E-1
2,374515662E1;8,131494522E-1;-2,668650150E0;-9,583320618E-1
2,384387218E1;-5,916697979E-1;-2,152099133E0;2,602485657E0
2,394256055E1;-1,687690020E0;3,827114105E0;5,340608597E0
2,404122127E1;2,418107033E0;-1,097049713E-1;2,349839687E0
2,413991794E1;-2,427465916E-1;-6,775412560E-1;-2,434656620E0
2,423856604E1;7,100200653E-1;-3,079611778E0;-3,412689686E0
2,433726563E1;-2,556699991E0;-2,208226204E0;-2,234657288E0
2,443594262E1;1,954076290E0;2,590410233E0;-1,290798187E0
2,453469152E1;1,132719278E0;-2,915764332E0;1,785078049E0
2,463333452E1;-1,193485498E0;6,971549988E-1;3,302094936E0
2,473197319E1;-1,634613991E0;1,056507587E0;2,742791176E-1
2,483069180E1;1,328729153E0;4,284772873E-1;-1,265660286E0
2,492935669E1;-3,541905403E0;1,140197754E0;7,170572281E-1
2,502806016E1;-4,915367603E0;4,550549507E0;5,326933861E-1
2,512673936E1;-3,628039360E-1;-4,848527908E-2;1,198628902E0
2,520893611E1;8,733355999E-1;2,419953346E0;-1,771450043E-2
2,530765073E1;2,438442707E0;-4,997394562E0;-1,274093151E0
2,540634066E1;1,017113447E0;-5,661046982E0;-2,320079565E0
2,550501451E1;9,509468079E-1;-1,736907959E-1;1,177901745E0
2,560370119E1;-1,807246208E-1;-3,808307648E-1;1,298449516E0
2,570234470E1;-1,331022501E0;-4,701403618E0;-5,523033142E-1
2,580104121E1;-3,554675102E0;-1,362333775E0;4,257657051E0
2,589974798E1;-3,495315790E0;6,382769585E0;5,362912655E0
2,599840708E1;-2,548340559E0;-4,841636658E0;-5,863814354E-1
2,609710058E1;-3,282491446E0;6,022591591E0;-7,589702606E-1
2,619575143E1;1,030611753E0;3,186460495E0;-2,660132408E0
2,629447241E1;2,109789848E0;-7,865266800E-1;-3,860131264E0
2,639314370E1;-3,089644909E-1;-7,507217407E0;-1,412765026E0
2,649182632E1;-1,716000557E0;-2,110867500E0;1,161984682E0
2,659051102E1;8,534049988E-2;1,401556969E0;5,320167542E-1
2,668915753E1;-8,733193874E-1;1,075483322E0;-1,749665737E0
2,678785252E1;-4,003520012E-1;3,995394707E-1;3,343394279E0
2,688653076E1;-2,477284908E0;-4,528800964E0;6,227365494E0
2,698523668E1;-7,840042114E-1;-6,230573654E-1;5,068773270E0
2,708390768E1;2,111272812E0;-4,330806732E-1;8,039610863E0
2,718256510E1;1,856272936E0;1,088452339E0;-1,322041988E0
2,728125657E1;1,063084126E0;2,387046814E-3;4,536368370E0
2,737994239E1;6,166207790E-1;-2,987407684E0;1,422524452E-1
2,747864996E1;-1,654503584E0;-1,170130730E0;2,073912621E-1
2,757732030E1;5,683829308E0;-4,971550941E0;-2,441031933E0
2,767597186E1;-1,057884216E0;-1,045532703E0;4,371098042E0
2,777470518E1;-1,565070152E-1;-3,770092487E0;3,227428436E0
2,787336593E1;-3,032410622E0;3,488706350E0;4,479950905E0
2,797204870E1;8,108630180E-1;1,274669886E0;1,544191360E0
2,807072969E1;-1,941422939E0;-1,637663364E0;3,594217062E0
2,816936684E1;2,383905888E0;2,544424057E0;5,820442200E0
2,826804079E1;-1,065497160E0;1,380351543E0;-3,465645313E-1
2,836678407E1;5,859861374E-1;1,849269867E0;-2,731017351E0
2,846543707E1;-8,170995712E-1;-5,810651779E-1;1,036023140E0
2,856411274E1;-4,206118584E-1;-3,063506603E0;2,361527443E0
2,869567598E1;-2,585424900E0;-9,537496567E-1;2,557254314E0
2,879436908E1;1,523415565E0;-5,039596558E-1;-1,278388023E0
2,889306756E1;-6,593157291E0;-8,562326431E-3;6,610069752E0
2,899175274E1;-1,712688923E0;9,946637154E-1;3,631820679E-1
2,909043357E1;-3,348068476E0;8,753709793E-1;5,241384506E-1
2,918908138E1;-1,734763384E0;2,006483078E-1;-2,635703802E0
2,928779533E1;3,039783001E0;-1,895094872E0;-3,431157112E0
2,938645741E1;-1,343186140E0;-9,787559509E-1;-2,113428116E-1
2,948516351E1;8,521189690E-1;-2,503691196E0;-1,897587776E-1
2,958383770E1;7,672924995E-1;-4,514699936E0;-1,452970505E-2
2,968248573E1;-1,928992271E-1;-7,990078926E-1;2,206429482E0
2,978120119E1;-2,797637939E0;5,436069965E0;3,759847164E0
2,987988184E1;-3,958313465E0;5,774128914E0;-2,180808067E0
2,997856595E1;-1,410834789E0;1,847888947E0;-1,589851856E0
3,007723141E1;2,136662483E0;1,798079014E0;-9,816479683E-1
3,017589081E1;4,923564911E0;-6,668317795E0;2,368116379E0
3,027458245E1;6,295611858E-1;-3,693270683E0;1,653709412E-1
3,037327169E1;-6,004023552E-1;5,626568794E-1;-6,717510223E-1
3,047194299E1;2,757658005E0;-7,025842190E0;-4,580267906E0
3,057065534E1;-7,219467163E-1;2,421364784E-1;4,035371304E0
3,066929388E1;-1,174436808E0;4,509176731E0;-5,415654182E-1
3,076799498E1;-3,330232143E0;1,445048332E0;2,387550354E0
3,086669218E1;-3,654278278E0;4,870841026E0;5,256671429E0
3,096537023E1;-1,113171101E0;-1,192455292E0;-5,335755348E0
3,106402947E1;-9,699013233E-1;2,007012844E0;9,373784065E-1
3,116269753E1;9,346344471E-1;-2,475365639E0;2,666830063E0
3,126137242E1;2,890698910E-1;-9,539442062E-1;-6,341782570E0
3,136009703E1;-1,664798260E-1;-9,489583969E-1;2,138357162E0
3,145877740E1;-1,732518911E0;-1,316169739E0;-2,705288410E0
3,155745573E1;-8,405733109E-2;-2,910452843E0;-9,717464447E-3
3,165610059E1;-2,067524433E0;1,136882305E0;3,587350845E-1
3,175479274E1;-8,379545212E-1;2,202440500E0;2,493894577E0
3,185349538E1;-2,470710754E0;1,422050476E0;-1,460557461E0
3,195216205E1;1,529432297E0;5,989465714E-1;-2,017647743E0
3,205083319E1;2,977299690E-2;1,366558075E0;8,811960220E-1
3,214950505E1;9,838044643E-1;2,743959427E-1;-5,079374313E-1
3,224821775E1;-1,297790289E0;-4,915895462E-1;-9,521794319E-1
3,234689562E1;9,371328354E-1;-5,881865978E0;1,526850224E0
3,244564139E1;-9,784808159E-1;-1,158561707E-1;1,668980122E0
3,254425732E1;-4,402418137E-1;-1,301506996E0;9,816989899E-1
3,264290667E1;-4,544016361E0;6,921305656E-1;5,869939804E0
3,274162052E1;2,235766888E0;-2,283117294E0;2,805198669E0
3,284030958E1;-2,530694485E0;1,731462479E0;-7,361540794E-1
3,293898193E1;2,079775333E-1;-1,139626503E0;-5,433671951E0
3,303766621E1;3,043675661E0;-3,652988434E0;-6,941955090E0
3,313630967E1;5,326685905E0;-5,606298447E-1;-5,013761520E0
3,323502304E1;-1,187938929E0;5,102543831E-1;2,058172464E0
3,333371360E1;5,852794647E0;-7,137865067E0;-2,419451237E0
3,343238505E1;-1,743565083E0;-1,439480305E0;2,998382568E0
3,353106646E1;-1,942050457E0;1,994679928E0;1,444284916E0
3,362971184E1;-7,508425713E0;3,153054476E0;6,113796711E0
3,372842278E1;-1,983213425E-2;-1,490098000E0;1,615171909E0
3,382711714E1;1,375532150E-1;2,019612312E0;2,817211628E0
3,392577330E1;7,092382431E0;-3,968220711E0;-6,403926849E0
3,402446298E1;3,154437542E-1;1,589000702E0;9,832975864E-1
3,412311441E1;2,306325436E0;-2,217976570E0;-1,313935280E0
3,422182493E1;4,320002556E0;-2,062695503E0;9,994659424E-1
3,432051410E1;1,098969460E0;-1,089942932E0;3,362708569E0
3,441915400E1;2,438695431E0;-3,517496109E0;-3,933454037E0
3,451785102E1;-2,582098246E0;4,227057934E0;6,266961098E-1
3,461651767E1;-6,481881142E-1;6,141339302E0;-7,784485817E0
3,471523087E1;9,934735298E-1;9,312567711E-1;-1,750591278E0
3,481389062E1;3,673034191E0;-1,027519226E0;-7,031409740E-1
3,491256204E1;-3,629342556E0;-5,123434067E0;1,734704852E0
3,501127157E1;4,892699718E-1;-3,595022202E0;-3,695627928E0
3,510992075E1;3,097691536E-1;-4,135470390E-1;-5,534193516E0
3,520858189E1;8,823194504E-1;-2,144810200E0;-3,128387451E0
3,530731427E1;4,003850460E0;-5,319073200E-1;2,588829994E-1
3,540599161E1;-5,441613197E0;2,216624737E0;6,916485310E0
3,550470574E1;8,320369720E-1;4,192089081E0;1,524358273E0
3,560332175E1;3,917379379E-1;8,629393578E-1;4,377219677E0
3,570203577E1;1,749083996E-1;1,196903706E0;-1,565882206E0
3,580071685E1;4,135963440E0;-4,725028992E0;-4,513870716E0
3,589939968E1;2,060210705E-1;-1,681663513E0;-1,520240307E-1
3,599807698E1;1,040554047E-2;-8,993277550E-1;5,982377529E-1
3,609672475E1;2,257375240E0;-3,515755177E0;-4,190591335E0
3,619543260E1;1,319707394E0;-2,758100510E0;-1,036540985E0
3,629411994E1;-5,485239983E0;-1,835827827E-1;5,368795872E0
3,639278434E1;-8,600154877E0;2,972625732E0;3,410188437E0
3,649147388E1;-9,056944847E-1;-4,882954597E0;4,519724846E0
3,659012604E1;-3,739855289E-1;1,495547295E0;4,158639908E0
3,668884035E1;1,559882164E-1;-3,941349030E0;-2,326236248E0
3,678751957E1;-2,323431730E0;1,450444698E0;2,640436649E0
3,688619353E1;3,205910206E0;-4,894882202E0;-2,084104538E0
3,698486666E1;2,396069050E0;-1,412289143E0;2,949893475E0
3,708352727E1;1,408180237E0;8,643734455E-1;1,589809895E0
3,718222733E1;-1,646214247E0;-3,030251741E0;2,143167973E0
3,728090419E1;3,561163425E0;2,851776123E0;2,474341869E0
3,737960367E1;-6,238088608E-1;-7,361941338E-1;4,270710945E0
3,747824233E1;3,171177387E0;-4,828134060E0;-9,294166565E-1
3,757693042E1;5,399706841E0;-1,548927307E0;-7,429018021E0
3,767563320E1;3,593066692E0;-4,163620949E0;-3,181187630E0
3,777431137E1;7,871279716E-1;-3,448366165E0;1,957799673E0
3,787300080E1;2,075324535E0;-1,269552231E0;2,128307104E0
3,797166107E1;2,523131847E0;-3,074429989E0;-2,814372063E0
3,807033164E1;-4,335603714E0;1,287827253E0;2,901701450E0
3,816904910E1;-2,710701466E0;-1,346435070E0;2,500473976E0
3,826772222E1;-3,889166355E0;5,957662582E0;3,728056908E0
3,836640566E1;1,495051384E0;-1,554024220E0;5,378519058E0
3,846506814E1;4,100513458E-1;1,363200665E0;1,238610744E0
3,856373286E1;-4,114246368E-1;-2,480854034E0;-1,767512083E0
3,866245690E1;-3,212161064E-1;-7,634391785E-1;-2,664815903E0
3,876116608E1;4,214880466E0;-4,035438538E0;-3,947210312E-1
3,885980793E1;4,812231064E-1;-1,248650074E0;4,313445568E0
3,895848036E1;-2,365471363E0;4,265298843E-1;3,605942249E0
3,905713338E1;-3,423276424E0;2,060986519E0;3,342340946E0
3,915588690E1;-3,745303869E0;1,808223009E0;1,990362167E0
3,925457072E1;1,485771179E0;-1,630044460E0;5,175947189E0
3,935319658E1;1,886263132E0;1,175729275E0;-3,218212843E0
3,945189627E1;1,174424648E0;-2,704793930E0;-2,713883877E0
3,955053371E1;-2,418677568E0;1,226707935E0;6,778197289E-1
3,964923309E1;6,834414959E0;-9,430414200E0;-4,402076721E0
3,974791490E1;4,132833481E0;-1,902780533E-1;3,672100306E0
3,984660767E1;-6,175584793E-1;1,071296930E0;1,599787712E0
3,994528757E1;-3,018597603E0;-4,385948181E-1;3,961768150E0
4,004393340E1;-1,371326447E-1;2,700541496E0;3,491140127E0
4,014261427E1;2,182354450E0;-4,269164562E0;-1,374831200E-1
4,024130772E1;5,198403835E0;2,820852280E0;2,937897682E0
4,033998229E1;4,132340431E0;-5,823966026E0;-5,462615967E0
4,043866118E1;3,511810541E0;-2,589794159E0;-3,352205753E0
4,053733420E1;-4,601674080E-1;-2,902560711E0;-8,839082718E-2
4,063603199E1;2,173450947E0;-1,619740963E0;1,238868237E0
4,073472803E1;-3,600854874E-1;-2,273092508E0;8,908715248E-1
4,086010049E1;-8,838434219E-1;3,919222355E0;4,211297989E0
4,094233197E1;-4,714899063E-1;6,115007401E-2;-2,351798058E0
4,102456840E1;-6,590542793E-1;1,935307980E0;-1,570026875E0
4,112456840E1;0,000000000E0;0,000000000E0;0,000000000E0
4,122456840E1;0,000000000E0;0,000000000E0;0,000000000E0
4,132456840E1;-3,066476822E0;-1,997766495E-1;3,095300674E0
4,142456840E1;-3,066476822E0;-1,997766495E-1;3,095300674E0
4,152456840E1;-3,066476822E0;-1,997766495E-1;3,095300674E0
4,162456840E1;-2,467050076E0;7,095587254E-1;4,480094433E0
4,172456840E1;1,559276581E-1;-5,840370655E-1;-6,750669479E-1
4,182456840E1;1,559276581E-1;-5,840370655E-1;-6,750669479E-1
4,192456840E1;1,559276581E-1;-5,840370655E-1;-6,750669479E-1
4,202456840E1;1,491863489E0;-9,755926132E-1;-3,049439430E0
4,212456840E1;1,491863489E0;-9,755926132E-1;-3,049439430E0
4,222456840E1;6,520609856E-1;-1,384554863E0;-1,848220825E-2
4,232456840E1;6,520609856E-1;-1,384554863E0;-1,848220825E-2
4,242456840E1;-1,514625549E-2;-2,283714294E0;-1,298040867E0
4,252456840E1;-1,514625549E-2;-2,283714294E0;-1,298040867E0
4,262456840E1;-1,514625549E-2;-2,283714294E0;-1,298040867E0
4,272456840E1;-4,379638195E0;6,895357132E0;-3,684689522E0
4,282456840E1;2,413148403E0;-1,901525974E0;-4,125338554E0
4,292456840E1;1,157175064E0;2,884634018E0;6,102466583E-2
4,302456840E1;5,253076553E-1;1,294326782E-1;-8,157844543E-1
4,312456840E1;-8,388395309E-1;-6,095781326E-1;1,189703703E0
4,322456840E1;-7,310867310E-3;-1,453638077E-2;-5,806474686E-1
4,332456840E1;-1,841130733E0;-4,213461876E-1;5,659384727E-1
4,342456840E1;-5,265388489E-1;-1,885002613E0;1,166547775E0
4,352456840E1;-5,757022381E0;4,530172348E0;7,109209538E0
4,362456840E1;-1,143057823E0;-1,321321964E0;2,393411398E0
4,372456840E1;-1,209578991E0;-1,492443085E-1;2,044715643E0
4,382456840E1;2,910019875E0;-8,599324226E-1;-2,860160828E0
4,392456840E1;8,929018974E-1;-7,384771347E0;-2,284935236E0
4,402456840E1;5,112600327E-1;-3,556692123E0;2,616727591E0
4,412456840E1;3,083966732E0;8,219370842E-1;-8,904357910E0
4,422456840E1;4,680337906E-1;-7,270355225E-1;-1,426474094E0
4,432456840E1;-2,121576071E0;9,185333252E-1;4,579453468E-1
4,442456840E1;-1,232147694E0;-2,741219997E-1;1,553239346E0
4,452456840E1;-2,205675125E0;1,566336393E0;1,359536648E0
4,462456840E1;-1,805898905E0;3,224310875E-1;-7,013416290E-2
4,472456840E1;-1,444142342E0;1,041739941E0;1,633457661E0
4,482456840E1;4,725095749E0;-4,451143265E0;2,097368717E0
4,492456840E1;5,416347980E0;-5,287675858E-1;-4,303761482E0
4,502456840E1;-1,347326040E0;-7,762241364E-1;-5,117144585E-1
4,512456840E1;1,810965538E-1;-5,359182358E-1;-1,355533600E-1
4,522456840E1;5,139293671E-1;-3,875164986E-1;7,325363159E-1
4,532456840E1;-3,961272955E0;1,078764677E0;4,865818024E0
4,542456840E1;-1,817139149E0;-2,712225914E-1;-1,594737053E0
4,552456840E1;-3,965476036E0;8,897838593E-1;9,396162033E-1
4,562456840E1;-2,067055225E0;1,275044441E0;-1,834688187E-1
4,572456840E1;2,827094316E0;-4,391440392E0;9,252171516E-1
4,582456840E1;2,002665758E0;-1,555829048E0;-2,237217426E0
4,592456840E1;8,822669983E-1;-1,370124817E0;-3,159044743E0
4,602456840E1;3,217465878E0;-1,753734589E0;-9,699406624E-1
4,612456840E1;-2,555895329E0;8,775997162E-2;1,190457344E0
4,622456840E1;-3,411237955E0;-1,118259907E0;1,970655441E0
4,632456840E1;-5,455062389E0;2,134860754E0;4,454119682E0
4,642456840E1;-2,278841019E0;1,340368748E0;2,815794945E-1
4,652456840E1;-1,593357801E0;-2,383120060E0;3,917634487E-1
4,662456840E1;1,116354656E1;-6,816842079E0;-3,169250727E0
4,672456840E1;3,737361431E0;-3,800128937E0;1,889092565E0
4,682456840E1;1,871991158E-1;-3,641594887E0;-1,422990322E0
4,692456840E1;1,211550236E0;-3,700714111E-1;2,367403507E-1
4,702456840E1;1,093454361E0;9,150695801E-2;-4,406050205E0
4,712456840E1;1,051812172E-1;-3,051669598E0;1,330562115E0
4,722456840E1;-7,461998940E0;9,590661049E0;-1,919859886E0
4,732456840E1;2,224925518E0;-5,168540001E0;-2,409198284E0
4,742456840E1;-3,946373940E0;2,406774521E0;4,104280472E-1
4,752456840E1;1,853397846E0;4,774661064E-1;-2,620491982E0
4,762456840E1;1,836705208E-1;-4,799823761E-1;-1,712639332E0
4,772456840E1;1,836705208E-1;-4,799823761E-1;-1,712639332E0
4,782456840E1;1,836705208E-1;-4,799823761E-1;-1,712639332E0
4,792456840E1;1,836705208E-1;-4,799823761E-1;-1,712639332E0
4,802456840E1;1,836705208E-1;-4,799823761E-1;-1,712639332E0
4,812456840E1;1,836705208E-1;-4,799823761E-1;-1,712639332E0
4,822456840E1;1,836705208E-1;-4,799823761E-1;-1,712639332E0
4,832456840E1;1,836705208E-1;-4,799823761E-1;-1,712639332E0
4,842456840E1;1,836705208E-1;-4,799823761E-1;-1,712639332E0
4,852456840E1;1,836705208E-1;-4,799823761E-1;-1,712639332E0
4,862456840E1;1,836705208E-1;-4,799823761E-1;-1,712639332E0
4,872456840E1;1,836705208E-1;-4,799823761E-1;-1,712639332E0
4,882456840E1;1,836705208E-1;-4,799823761E-1;-1,712639332E0
4,892456840E1;1,836705208E-1;-4,799823761E-1;-1,712639332E0
4,902456840E1;1,836705208E-1;-4,799823761E-1;-1,712639332E0
4,912456840E1;1,836705208E-1;-4,799823761E-1;-1,712639332E0
4,922456840E1;1,836705208E-1;-4,799823761E-1;-1,712639332E0
4,932456840E1;1,836705208E-1;-4,799823761E-1;-1,712639332E0
4,942456840E1;1,836705208E-1;-4,799823761E-1;-1,712639332E0
4,952456840E1;1,836705208E-1;-4,799823761E-1;-1,712639332E0
4,962456840E1;1,836705208E-1;-4,799823761E-1;-1,712639332E0
4,972456840E1;1,836705208E-1;-4,799823761E-1;-1,712639332E0
4,982456840E1;1,836705208E-1;-4,799823761E-1;-1,712639332E0
4,992456840E1;1,836705208E-1;-4,799823761E-1;-1,712639332E0
5,002456840E1;1,836705208E-1;-4,799823761E-1;-1,712639332E0
5,012456840E1;2,274200439E0;1,014794827E0;-5,780556202E-1
5,022456840E1;1,056487799E0;4,771148205E0;1,166633248E0
5,032456840E1;1,474707127E0;1,851861000E0;3,386080265E-1
5,042456840E1;-3,801277161E0;1,991743088E0;3,291506290E0
5,052456840E1;-9,280319214E-1;2,808914185E-1;-3,694186211E-1
5,062456840E1;-1,511462212E0;-1,796638489E0;2,716995239E0
5,072456840E1;-4,948674202E0;4,642708302E-1;2,288799286E0
5,082456840E1;-4,482213974E0;3,453929424E0;1,553248405E0
5,092456840E1;2,152219772E0;-2,467339039E0;2,391908407E0
5,102456840E1;5,344989300E0;-4,126129150E-1;-1,811826706E0
5,112456840E1;3,041132212E0;-1,419621468E0;3,221533298E-1
5,122456840E1;3,674821854E-1;6,585888863E-1;1,274627686E0
5,132456840E1;8,170928955E-1;-1,988344193E-1;-1,644070148E0
5,142456840E1;-1,851315975E0;-1,230895996E0;1,602375746E0
5,152456840E1;-7,409873009E-1;3,012454510E-1;4,833984375E0
5,162456840E1;-8,883127213E0;5,729451656E0;5,096182346E0
5,172456840E1;-6,711807251E-1;-2,985597610E0;1,721887112E0
5,182456840E1;4,749460220E-1;2,276998997E0;2,639631748E0
5,192456840E1;-1,900654793E0;-2,070820808E0;-2,783367395E0
5,202456840E1;2,103291512E0;-1,123137474E0;-4,443556309E0
5,212456840E1;1,043020248E0;-2,069383621E0;-2,116770744E-1
5,222456840E1;3,179545403E-1;-1,469254494E-1;2,440107346E0
5,232456840E1;-1,448839188E0;6,458158493E-1;4,708685875E-1
5,242456840E1;-1,475603580E0;4,171156883E-1;6,706480980E-1
5,252456840E1;-5,479759216E0;2,285151005E0;5,423079491E0
5,262456840E1;-7,378401756E-1;1,695375443E0;-6,856274605E-1
5,272456840E1;7,142834663E-1;-1,411041737E0;-1,586242914E0
5,282456840E1;2,230729580E0;-5,381985664E0;-1,911094904E0
5,292456840E1;3,480789185E0;-3,064016342E0;-1,035754204E1
5,302456840E1;2,269235134E0;1,269142151E0;-1,164860964E0
5,312456840E1;1,914637089E0;-3,396432877E0;-1,851989508E0
5,322456840E1;-4,128174782E-1;-5,169630051E-1;3,736431360E0
5,332456840E1;-5,536583900E0;1,763489008E0;4,177797794E0
5,342456840E1;-5,783690453E0;-4,784977436E0;4,364905357E0
5,352456840E1;-2,681509256E0;4,410161972E0;1,933490276E0
5,362456840E1;1,470864773E0;-4,821222305E0;2,928084373E0
5,372456840E1;2,397901058E0;7,794589996E-1;2,264523506E0
5,382456840E1;1,476211309E0;-3,462781906E0;7,878582478E-1
5,392456840E1;4,707589149E-1;-2,073728085E0;-1,476578236E0
5,402456840E1;2,218450069E0;-3,285794258E0;1,448397636E-1
5,412456840E1;-1,020556450E0;-1,832871437E0;9,093680382E-1
5,422456840E1;1,204052448E0;4,543409348E-1;6,944003105E-1
5,432456840E1;-5,905911446E0;4,861473560E0;1,037917137E0
5,442456840E1;2,400822639E0;1,005830765E0;2,191538811E0
5,452456840E1;4,328562737E0;-3,262257576E0;-7,244837761E0
5,462456840E1;7,089357376E-1;3,180565357E0;-8,192024231E-1
5,472456840E1;1,547709465E0;-2,071017265E0;-2,769945145E0
5,482456840E1;1,871933937E-1;-2,961733818E0;-5,280709267E-1
5,492456840E1;7,488131523E-1;-1,244843483E0;1,329526186E0
5,502456840E1;5,952310562E-1;-2,944114208E0;5,206222534E-1
5,512456840E1;-3,301588774E0;-7,371456623E-1;2,636978865E0
5,522456840E1;-3,301588774E0;-7,371456623E-1;2,636978865E0
5,532456840E1;-3,301588774E0;-7,371456623E-1;2,636978865E0
5,542456840E1;-3,301588774E0;-7,371456623E-1;2,636978865E0
5,552456840E1;-3,301588774E0;-7,371456623E-1;2,636978865E0
5,562456840E1;-3,301588774E0;-7,371456623E-1;2,636978865E0
5,572456840E1;-3,301588774E0;-7,371456623E-1;2,636978865E0
5,582456840E1;-3,301588774E0;-7,371456623E-1;2,636978865E0
5,592456840E1;-3,301588774E0;-7,371456623E-1;2,636978865E0
5,602456840E1;-3,301588774E0;-7,371456623E-1;2,636978865E0
5,612456840E1;-3,301588774E0;-7,371456623E-1;2,636978865E0
5,622456840E1;-3,301588774E0;-7,371456623E-1;2,636978865E0
5,632456840E1;-3,301588774E0;-7,371456623E-1;2,636978865E0
5,642456840E1;-3,301588774E0;-7,371456623E-1;2,636978865E0
5,652456840E1;-3,301588774E0;-7,371456623E-1;2,636978865E0
5,662456840E1;-3,301588774E0;-7,371456623E-1;2,636978865E0
5,672456840E1;-3,301588774E0;-7,371456623E-1;2,636978865E0
5,682456840E1;-3,301588774E0;-7,371456623E-1;2,636978865E0
5,692456840E1;-3,301588774E0;-7,371456623E-1;2,636978865E0
5,702456840E1;-3,301588774E0;-7,371456623E-1;2,636978865E0
5,712456840E1;-3,301588774E0;-7,371456623E-1;2,636978865E0
5,722456840E1;-3,301588774E0;-7,371456623E-1;2,636978865E0
5,732456840E1;5,361456871E-1;1,297360897E0;-3,464401484E0
5,742456840E1;5,361456871E-1;1,297360897E0;-3,464401484E0
5,752456840E1;8,249144554E-1;-1,297463894E0;2,017328978E0
5,762456840E1;8,249144554E-1;-1,297463894E0;2,017328978E0
5,772456840E1;8,249144554E-1;-1,297463894E0;2,017328978E0
5,782456840E1;1,312567711E0;2,607375622E0;-3,239725590E0
5,792456840E1;-1,144724369E0;8,663988113E-2;-2,395839453E0
5,802456840E1;-1,144724369E0;8,663988113E-2;-2,395839453E0
5,812456840E1;-1,144724369E0;8,663988113E-2;-2,395839453E0
5,822456840E1;3,715934753E-1;1,847666264E0;3,569294930E0
5,832456840E1;-1,586633682E0;3,767924309E-1;3,116673708E0
5,842456840E1;-1,586633682E0;3,767924309E-1;3,116673708E0
5,852456840E1;-1,586633682E0;3,767924309E-1;3,116673708E0
5,862456840E1;-6,132511139E0;8,284328461E0;-1,055871010E0
5,872456840E1;-6,132511139E0;8,284328461E0;-1,055871010E0
5,882456840E1;-6,132511139E0;8,284328461E0;-1,055871010E0
5,892456840E1;-6,826195717E-1;1,808689117E0;-4,223566055E-1
5,902456840E1;-6,826195717E-1;1,808689117E0;-4,223566055E-1
5,912456840E1;1,846785069E0;-3,234395504E0;-2,443044186E-1
5,922456840E1;1,892734051E0;-2,981785297E0;-2,665610313E0
5,932456840E1;1,367335320E0;-1,232176304E0;1,298040390E0
5,942456840E1;1,589998722E0;-3,615300179E0;1,636011362E0
5,952456840E1;-3,771378756E0;-2,807139397E0;3,813127041E0
5,962456840E1;-4,457055092E0;4,347373009E0;4,798536301E0
5,972456840E1;5,505837917E0;2,116260529E-1;-2,635595798E-1
5,982456840E1;-1,959539175E0;-8,618011475E-1;3,164163589E0
5,992456840E1;-4,324123859E-1;3,549394608E-1;8,028428078E0
6,002456840E1;2,470855713E0;1,594718456E0;-4,109705925E0
6,012456840E1;1,192146301E0;-2,527893066E0;-4,879334450E0
6,022456840E1;-8,015127182E-1;-4,705452919E-1;6,656637192E-1
6,032456840E1;2,833290100E-1;-3,782312393E0;-1,572516918E0
6,042456840E1;-5,778925896E0;1,806848645E0;3,226918221E0
6,052456840E1;2,334866047E0;8,763631821E0;3,425570726E0
6,062456840E1;4,462485313E-1;-8,012304306E-1;-3,687145233E0
6,072456840E1;2,301989555E0;4,813231468E0;5,818939209E-2
6,082456840E1;4,002793312E0;-3,085393906E-1;-9,750211239E-1
6,092456840E1;-1,903520346E0;1,616989136E0;-1,319503069E0
6,102456840E1;-2,092895508E-1;-1,782502174E0;1,112824678E0
6,112456840E1;8,598153114E0;-9,670769691E0;2,185475826E0
6,122456840E1;3,500976086E0;-1,317835808E0;2,183458805E0
6,132456840E1;-8,829975128E-2;4,135613441E-1;-5,950765610E-1
6,142456840E1;-4,228310585E0;-1,158581257E0;9,432611465E-1
6,152456840E1;-1,177076340E0;4,553127289E-2;7,080214024E-1
6,162456840E1;1,431138515E0;-3,891480923E0;-2,226299286E0
6,172456840E1;-1,368503571E0;-7,491388321E-1;1,586214066E0
6,182456840E1;-1,854047775E-1;2,471799850E-1;1,019149542E0
6,192456840E1;-7,388639450E-1;-2,234325409E-1;-8,662104607E-1
6,202456840E1;-1,284190655E0;2,929319382E0;-1,014008522E0
6,212456840E1;-1,614246845E0;1,189710140E0;1,699274540E0
6,222456840E1;-1,787425518E0;-1,300397873E0;-4,873070717E-1
6,232456840E1;-1,187728882E0;4,729542732E-1;-1,897591591E0
6,242456840E1;-3,892747402E0;3,493517399E0;9,179234505E-1
6,252456840E1;-4,894820213E0;1,479864120E-2;-4,932394028E-1
6,262456840E1;-5,589962006E-2;-2,816668034E0;-2,528628111E0
6,272456840E1;-2,317117214E0;-3,210912704E0;-1,607182264E0
6,282456840E1;-8,685717583E-1;-2,264692783E0;-6,452105045E-1
6,292456840E1;-2,635223389E0;-2,013855457E0;-1,646918535E0
6,302456840E1;-1,405950546E0;1,299048901E0;-1,117336750E0
6,312456840E1;1,662969112E0;-5,013073921E0;-2,818829060E0
6,322456840E1;-2,124916077E0;-1,806192398E-1;-7,954230309E-1
6,332456840E1;7,332015038E-1;7,196288109E-1;6,533846855E-1
6,342456840E1;2,372427464E0;-5,957670212E-1;-1,248532295E0
6,352456840E1;-1,757407188E0;1,950674057E0;1,572101116E-1
6,362456840E1;-4,451165199E0;2,765022993E0;2,195448637E0
6,372456840E1;3,575544357E0;-2,055509567E0;-2,100708246E0
6,382456840E1;3,440190315E0;-9,190812111E-1;-3,337008476E0
6,392456840E1;3,440190315E0;-9,190812111E-1;-3,337008476E0
6,402456840E1;3,440190315E0;-9,190812111E-1;-3,337008476E0
6,412456840E1;3,440190315E0;-9,190812111E-1;-3,337008476E0
6,422456840E1;3,440190315E0;-9,190812111E-1;-3,337008476E0
6,432456840E1;3,440190315E0;-9,190812111E-1;-3,337008476E0
6,442456840E1;3,440190315E0;-9,190812111E-1;-3,337008476E0
6,452456840E1;3,440190315E0;-9,190812111E-1;-3,337008476E0
6,462456840E1;3,440190315E0;-9,190812111E-1;-3,337008476E0
6,472456840E1;3,440190315E0;-9,190812111E-1;-3,337008476E0
6,482456840E1;3,440190315E0;-9,190812111E-1;-3,337008476E0
6,492456840E1;3,440190315E0;-9,190812111E-1;-3,337008476E0
6,502456840E1;3,440190315E0;-9,190812111E-1;-3,337008476E0
6,512456840E1;3,440190315E0;-9,190812111E-1;-3,337008476E0
6,522456840E1;3,440190315E0;-9,190812111E-1;-3,337008476E0
6,532456840E1;3,440190315E0;-9,190812111E-1;-3,337008476E0
6,542456840E1;3,440190315E0;-9,190812111E-1;-3,337008476E0
6,552456840E1;3,440190315E0;-9,190812111E-1;-3,337008476E0
6,562456840E1;3,440190315E0;-9,190812111E-1;-3,337008476E0
6,572456840E1;3,440190315E0;-9,190812111E-1;-3,337008476E0
6,582456840E1;3,440190315E0;-9,190812111E-1;-3,337008476E0
6,592456840E1;1,495391846E0;9,365978241E-1;-1,089364529E0
6,602456840E1;1,495391846E0;9,365978241E-1;-1,089364529E0
6,612456840E1;1,495391846E0;9,365978241E-1;-1,089364529E0
6,622456840E1;-7,107186317E-1;-7,353668213E-1;1,489028811E0
6,632456840E1;-7,107186317E-1;-7,353668213E-1;1,489028811E0
6,642456840E1;-6,492242813E-1;-1,508276463E0;3,533638477E0
6,652456840E1;-6,012735367E-1;-1,831991196E0;7,448959351E-1
6,662456840E1;-6,553946018E0;1,559788465E0;2,884285450E0
6,672456840E1;1,505472183E0;2,321154594E0;-4,481954575E0
6,682456840E1;6,237840652E-1;3,432273865E-1;2,346773148E-1
6,692456840E1;1,725576878E0;-8,701334000E-1;-2,444272041E0
6,702456840E1;4,080705166E0;-3,180399895E0;-4,941248894E0
6,712456840E1;3,433576584E0;-1,311353683E0;-1,568694115E-1
6,722456840E1;-3,394265175E-1;-1,108920097E0;2,066134214E0
6,732456840E1;6,990232468E-1;-1,052170753E0;-1,968463421E0
6,742456840E1;4,040528774E0;-5,349114418E0;-1,494117260E0
6,752456840E1;-9,438073158E0;6,570637703E0;6,805313110E0
6,762456840E1;-1,651835442E-1;2,266107798E0;4,969470501E-1
6,772456840E1;4,957632065E0;-5,470317841E0;-8,303351402E-1
6,782456840E1;2,535176277E0;1,793732166E0;-4,028246403E-1
6,792456840E1;1,443424225E0;1,218235970E0;7,443997860E-1
6,802456840E1;1,552726746E0;-6,250905991E-2;-1,432452679E0
6,812456840E1;4,430058956E0;-2,460874557E0;-5,567317009E-1
6,822456840E1;-1,847352982E0;9,582407475E-1;1,977302551E0
6,832456840E1;1,276059151E0;3,864892721E0;1,009356499E0
6,842456840E1;-5,730731964E0;5,896080971E0;2,291127205E0
6,852456840E1;-3,733067989E0;3,485518217E0;-1,626739025E0
6,862456840E1;2,857068539E0;-7,736857414E0;-9,418861866E-1
6,872456840E1;2,609264374E0;7,382531166E-1;1,025619864E0
6,882456840E1;1,787507534E0;2,798299789E-1;-1,361509085E0
6,892456840E1;1,550905704E0;-3,854679585E0;-6,210939884E-1
6,902456840E1;-6,181635857E-1;-9,747605324E-1;-8,716969490E-1
6,912456840E1;-2,675367355E0;-1,730678082E0;4,101314545E0
6,922456840E1;2,271584988E0;-4,906057835E0;3,747857094E0
6,932456840E1;-2,316009998E0;4,298514843E0;3,187881947E0
6,942456840E1;-2,063407421E0;8,829674721E-1;2,500494719E0
6,952456840E1;8,321552277E-1;-8,544740677E-1;-1,202106476E-1
6,962456840E1;3,248963356E-1;1,181353092E0;-1,702727318E0
6,972456840E1;1,573067188E0;-1,817534924E0;-1,224787235E0
6,982456840E1;3,568897247E-1;-1,181292534E-1;1,104586601E0
6,992456840E1;-2,568212986E0;-2,638601780E0;2,702975273E-1
7,002456840E1;-1,319978714E0;-3,220359087E0;2,222646713E0
7,012456840E1;-8,515197754E0;2,079044104E0;2,960949898E0
7,022456840E1;9,210805893E-1;-2,689103603E0;-1,039268970E-1
7,032456840E1;8,809852600E-2;1,086762428E0;5,318907499E-1
7,042456840E1;1,819185734E0;1,543599606E0;-3,093256474E0
7,052456840E1;4,681777477E0;-1,593951225E0;-3,096337795E0
7,062456840E1;-2,785814285E0;-1,170942783E0;-1,525957584E-1
7,072456840E1;1,907147884E0;-2,147517204E0;-1,006342649E0
7,082456840E1;-9,061183929E-1;-1,648260117E0;1,507165909E0
7,092456840E1;-3,153029919E0;-4,225869179E0;-5,470800400E-1
7,102456840E1;-5,315021515E0;4,748360634E0;1,545423031E0
7,112456840E1;-1,641915321E0;1,537252903E0;8,064820766E-1
7,122456840E1;3,410971642E0;-5,707835197E0;-1,880965233E0
7,132456840E1;4,751424789E-1;8,707051277E-1;-3,093179703E0
7,142456840E1;4,751424789E-1;8,707051277E-1;-3,093179703E0
7,152456840E1;4,751424789E-1;8,707051277E-1;-3,093179703E0
7,162456840E1;4,751424789E-1;8,707051277E-1;-3,093179703E0
7,172456840E1;4,751424789E-1;8,707051277E-1;-3,093179703E0
7,182456840E1;4,751424789E-1;8,707051277E-1;-3,093179703E0
7,192456840E1;4,751424789E-1;8,707051277E-1;-3,093179703E0
7,202456840E1;4,751424789E-1;8,707051277E-1;-3,093179703E0
7,212456840E1;4,751424789E-1;8,707051277E-1;-3,093179703E0
7,222456840E1;4,751424789E-1;8,707051277E-1;-3,093179703E0
7,232456840E1;4,751424789E-1;8,707051277E-1;-3,093179703E0
7,242456840E1;4,751424789E-1;8,707051277E-1;-3,093179703E0
7,252456840E1;4,751424789E-1;8,707051277E-1;-3,093179703E0
7,262456840E1;4,751424789E-1;8,707051277E-1;-3,093179703E0
7,272456840E1;4,751424789E-1;8,707051277E-1;-3,093179703E0
7,282456840E1;4,751424789E-1;8,707051277E-1;-3,093179703E0
7,292456840E1;4,751424789E-1;8,707051277E-1;-3,093179703E0
7,302456840E1;4,751424789E-1;8,707051277E-1;-3,093179703E0
7,312456840E1;4,751424789E-1;8,707051277E-1;-3,093179703E0
7,322456840E1;4,751424789E-1;8,707051277E-1;-3,093179703E0
7,332456840E1;4,751424789E-1;8,707051277E-1;-3,093179703E0
7,342456840E1;4,751424789E-1;8,707051277E-1;-3,093179703E0
7,352456840E1;2,489235401E0;-1,004756927E0;-9,402709007E-1
7,362456840E1;2,489235401E0;-1,004756927E0;-9,402709007E-1
7,372456840E1;1,872947216E0;-8,247442245E-1;-5,070004463E-1
7,382456840E1;-7,331366539E-1;-7,682743073E-1;8,792128563E-1
7,392456840E1;-6,769495010E-1;-4,651532173E-1;6,334464550E-1
7,402456840E1;-3,357954502E0;-1,358061552E0;2,425593138E0
7,412456840E1;-4,841147423E0;2,098933458E0;2,909091473E0
7,422456840E1;-1,346742153E0;3,968520164E-1;-1,363754272E-2
7,432456840E1;7,897529602E-1;-2,162475586E-1;-9,572327137E-1
7,442456840E1;2,790353298E0;-1,529970169E0;-5,837662220E-1
7,452456840E1;2,469908237E0;-2,269543648E0;-8,541369438E-2
7,462456840E1;-1,354627609E-1;-1,774960041E0;1,015830278E0
7,472456840E1;2,266310692E0;-2,127553463E0;6,697411537E-1
7,482456840E1;-7,208390236E-1;-2,685761929E0;2,070288181E0
7,492456840E1;-4,844482422E0;1,377279043E0;3,396138191E0
7,502456840E1;-4,137002945E0;3,454797029E0;1,225330830E0
7,512456840E1;7,145986557E-1;-4,379754066E-1;1,016862392E0
7,522456840E1;2,354408264E0;-2,544993401E0;5,957603455E-3
7,532456840E1;2,794018269E0;3,228645325E-1;-1,237780571E0
7,542456840E1;2,886788368E0;-2,086067200E-2;-1,187626600E0
7,552456840E1;-4,745483398E-2;-3,279287815E0;1,248179555E0
7,562456840E1;-6,596522331E-1;-1,415987968E0;1,651539803E0
7,572456840E1;4,544258118E-2;-3,388854504E0;1,227298975E0
7,582456840E1;-4,537020206E0;-1,345674992E-1;2,700448513E0
7,592456840E1;-2,231598377E0;3,282406330E0;1,410627842E0
7,602456840E1;6,571135521E-1;-1,146204472E0;-4,332809448E-1
7,612456840E1;3,330115795E0;-1,923171043E0;2,074337006E-2
7,622456840E1;2,893118143E0;-8,698625565E-1;-2,243712902E0
7,632456840E1;1,574726105E0;-6,024665833E-1;-7,734704018E-2
7,642456840E1;1,627712727E0;-2,417176247E0;5,270969868E-1
7,652456840E1;-4,610700607E-1;-1,573801041E0;1,759796143E0
7,662456840E1;-2,480908394E0;-5,647511482E-1;2,016557455E0
7,672456840E1;-5,134243011E0;2,558611393E0;3,786772013E0
7,682456840E1;-7,606253624E-1;1,009735107E0;-5,111551285E-1
7,692456840E1;1,726852894E0;-1,107153893E0;-1,386436224E0
7,702456840E1;2,744689941E0;-9,927272797E-1;-6,566677094E-1
7,712456840E1;3,513441801E0;-1,542674065E0;-1,828100681E-1
7,722456840E1;-7,211322784E-1;-1,199045658E0;6,650304794E-1
7,732456840E1;1,768177509E0;-1,908946514E0;1,214610338E0
7,742456840E1;-1,498289108E-1;-2,513927460E0;1,882317781E0
7,752456840E1;-4,215655804E0;-3,299362659E-1;3,008102179E0
7,762456840E1;-4,273426056E0;3,599640131E0;1,129370213E0
7,772456840E1;7,968440056E-1;-9,793677330E-1;-4,858541489E-1
7,782456840E1;2,902735710E0;-1,150815964E0;-8,334100246E-1
7,792456840E1;2,774322033E0;-9,542856216E-1;-1,629032373E0
7,802456840E1;1,602938652E0;-4,792652130E-1;-1,400020123E-1
7,812456840E1;1,051328182E0;-3,343459606E0;2,449944019E-1
7,822456840E1;-1,108113766E0;-1,754266262E0;2,064877033E0
7,832456840E1;-2,822881222E0;-7,017836571E-1;1,909654617E0
7,842456840E1;-5,615032196E0;1,463127613E0;2,246721029E0
7,852456840E1;-1,109255314E0;1,314618111E0;3,544943333E-1
7,862456840E1;1,668957710E0;-8,529586792E-1;-1,427397966E0
7,872456840E1;4,199335098E0;-8,921632767E-1;-8,281252384E-1
7,882456840E1;2,832176208E0;-8,647499084E-1;-5,826411247E-1
7,892456840E1;2,832176208E0;-8,647499084E-1;-5,826411247E-1
7,902456840E1;2,832176208E0;-8,647499084E-1;-5,826411247E-1
7,912456840E1;2,832176208E0;-8,647499084E-1;-5,826411247E-1
7,922456840E1;2,832176208E0;-8,647499084E-1;-5,826411247E-1
7,932456840E1;2,832176208E0;-8,647499084E-1;-5,826411247E-1
7,942456840E1;2,832176208E0;-8,647499084E-1;-5,826411247E-1
7,952456840E1;2,832176208E0;-8,647499084E-1;-5,826411247E-1
7,962456840E1;2,832176208E0;-8,647499084E-1;-5,826411247E-1
7,972456840E1;2,832176208E0;-8,647499084E-1;-5,826411247E-1
7,982456840E1;2,832176208E0;-8,647499084E-1;-5,826411247E-1
7,992456840E1;2,832176208E0;-8,647499084E-1;-5,826411247E-1
8,002456840E1;2,832176208E0;-8,647499084E-1;-5,826411247E-1
8,012456840E1;2,832176208E0;-8,647499084E-1;-5,826411247E-1
8,022456840E1;2,832176208E0;-8,647499084E-1;-5,826411247E-1
8,032456840E1;2,832176208E0;-8,647499084E-1;-5,826411247E-1
8,042456840E1;2,832176208E0;-8,647499084E-1;-5,826411247E-1
8,052456840E1;2,832176208E0;-8,647499084E-1;-5,826411247E-1
8,062456840E1;2,832176208E0;-8,647499084E-1;-5,826411247E-1
8,072456840E1;2,832176208E0;-8,647499084E-1;-5,826411247E-1
8,082456840E1;2,832176208E0;-8,647499084E-1;-5,826411247E-1
8,092456840E1;2,832176208E0;-8,647499084E-1;-5,826411247E-1
8,102456840E1;2,832176208E0;-8,647499084E-1;-5,826411247E-1
8,112456840E1;4,229154587E0;-1,264025688E0;-6,748328209E-1
8,122456840E1;2,759761333E0;-1,501303673E0;-1,301629543E-1
8,132456840E1;-2,069943190E0;-7,828650475E-1;4,955706596E-1
8,142456840E1;4,036927700E0;-3,742013931E0;1,036633253E0
8,152456840E1;-3,973266840E0;-1,034261227E0;3,701221943E0
8,162456840E1;-2,330838203E0;2,305138111E-1;8,511419296E-1
8,172456840E1;-1,028149605E0;2,401041985E0;3,908789158E-1
8,182456840E1;7,059612274E-1;-4,867858887E-1;-1,122691631E-1
8,192456840E1;3,789435148E0;-1,219246864E0;-8,094956875E-1
8,202456840E1;2,977094650E0;-1,238120079E0;-6,814069748E-1
8,212456840E1;-1,201397419E0;-8,210911751E-1;-2,510404587E-2
8,222456840E1;1,150988579E0;-2,477199078E0;-2,175123692E-1
8,232456840E1;5,427346230E-1;-2,846769810E0;1,133579969E0
8,242456840E1;-6,790465832E0;1,573654652E0;2,190262794E0
8,252456840E1;-3,157114029E0;2,074934959E0;4,071104527E-1
8,262456840E1;8,746099472E-2;-1,330965519E0;-7,918652296E-1
8,272456840E1;4,295821667E0;-2,157079697E0;-7,227944136E-1
8,282456840E1;3,279133558E0;-1,820817947E0;-2,707426548E0
8,292456840E1;4,168033600E-3;-4,382085800E-1;-7,279781103E-1
8,302456840E1;1,641596317E0;-2,378099918E0;-1,070115566E-1
8,312456840E1;-1,084742546E-1;-2,374614239E0;-2,928779125E-1
8,322456840E1;-5,329076767E0;1,124394655E0;2,459991932E0
8,332456840E1;-5,845328331E0;4,355021954E0;1,164091587E0
8,342456840E1;1,059519768E0;-3,926053047E-1;1,801666021E-1
8,352456840E1;3,639427185E0;-2,047237396E0;-1,133016586E0
8,362456840E1;2,518029690E0;2,030410767E-1;-1,345829964E0
8,372456840E1;8,749604225E-1;-4,053392410E-1;-3,090960979E-1
8,382456840E1;2,109679699E0;-3,394629002E0;-2,945559025E-1
8,392456840E1;-1,452898979E-1;-1,890075684E0;2,242107868E0
8,402456840E1;-4,163654804E0;1,869392395E-2;2,676217079E0
8,412456840E1;-6,275531769E0;3,007479191E0;2,496527195E0
8,422456840E1;-9,311823845E-1;7,763028145E-1;8,778883219E-1
8,432456840E1;2,589078426E0;-2,411895752E0;-8,072710037E-2
8,442456840E1;4,134037018E0;-7,831869125E-1;-1,683650494E0
8,452456840E1;2,846425533E0;7,288279533E-1;2,673149109E-1
8,462456840E1;5,147552490E-1;-3,727648258E0;-6,605815887E-1
8,472456840E1;-2,394866943E-1;-2,385169983E0;1,008891582E0
8,482456840E1;-2,976851463E0;6,226475239E-1;4,183802605E0
8,492456840E1;-5,282065392E0;3,363980532E0;2,569783688E0
8,502456840E1;-6,698679924E-1;1,398471832E0;4,895203114E-1
8,512456840E1;1,405808449E0;-1,714517593E0;-8,423454762E-1
8,522456840E1;4,139336109E0;-1,119132996E0;-1,404364586E0
8,532456840E1;2,956039906E0;-2,550554276E-1;-3,062179089E-1
8,542456840E1;3,486766815E-1;-2,232491016E0;3,166222572E-1
8,552456840E1;1,788425446E-2;-2,384147644E0;1,252767086E0
8,562456840E1;-1,822069168E0;-8,557229042E-1;2,749670029E0
8,572456840E1;-6,027830124E0;2,883502007E0;2,511431694E0
8,582456840E1;-1,224616051E0;1,117053986E0;-5,540156364E-2
8,592456840E1;2,008007050E0;-2,824543953E0;-1,275223494E0
8,602456840E1;4,234611988E0;-4,210996628E-1;-5,944628716E-1
8,612456840E1;2,880535126E0;1,945590973E-2;-1,335545540E0
8,622456840E1;-9,458827972E-2;-1,998001575E0;8,388433456E-1
8,632456840E1;-9,458827972E-2;-1,998001575E0;8,388433456E-1
8,642456840E1;-9,458827972E-2;-1,998001575E0;8,388433456E-1
8,652456840E1;-9,458827972E-2;-1,998001575E0;8,388433456E-1
8,662456840E1;-9,458827972E-2;-1,998001575E0;8,388433456E-1
8,672456840E1;-9,458827972E-2;-1,998001575E0;8,388433456E-1
8,682456840E1;-9,458827972E-2;-1,998001575E0;8,388433456E-1
8,692456840E1;-9,458827972E-2;-1,998001575E0;8,388433456E-1
8,702456840E1;-9,458827972E-2;-1,998001575E0;8,388433456E-1
8,712456840E1;-9,458827972E-2;-1,998001575E0;8,388433456E-1
8,722456840E1;-9,458827972E-2;-1,998001575E0;8,388433456E-1
8,732456840E1;-9,458827972E-2;-1,998001575E0;8,388433456E-1
8,742456840E1;-9,458827972E-2;-1,998001575E0;8,388433456E-1
8,752456840E1;-9,458827972E-2;-1,998001575E0;8,388433456E-1
8,762456840E1;-9,458827972E-2;-1,998001575E0;8,388433456E-1
8,772456840E1;-9,458827972E-2;-1,998001575E0;8,388433456E-1
8,782456840E1;-9,458827972E-2;-1,998001575E0;8,388433456E-1
8,792456840E1;-9,458827972E-2;-1,998001575E0;8,388433456E-1
8,802456840E1;-9,458827972E-2;-1,998001575E0;8,388433456E-1
8,812456840E1;-9,458827972E-2;-1,998001575E0;8,388433456E-1
8,822456840E1;-9,458827972E-2;-1,998001575E0;8,388433456E-1
8,832456840E1;-9,458827972E-2;-1,998001575E0;8,388433456E-1
8,842456840E1;-9,458827972E-2;-1,998001575E0;8,388433456E-1
8,852456840E1;1,943306923E-1;-2,460474014E0;2,966561317E-1
8,862456840E1;1,943306923E-1;-2,460474014E0;2,966561317E-1
8,872456840E1;-1,753698349E0;-3,119831085E-1;2,948498249E0
8,882456840E1;-1,753698349E0;-3,119831085E-1;2,948498249E0
8,892456840E1;-5,289988518E-1;9,131426811E-1;-2,496783733E-1
8,902456840E1;2,501956940E0;-3,268151283E0;-1,096098423E0
8,912456840E1;5,397710323E0;-1,279722214E0;-1,204511166E0
8,922456840E1;2,150064468E0;-7,324905396E-1;-1,065304518E0
8,932456840E1;8,227968216E-1;-2,015757084E0;-7,795643806E-2
8,942456840E1;-1,141406059E0;-7,715320587E-1;2,018763542E0
8,952456840E1;-2,503030300E0;-6,684098244E-1;2,644267559E0
8,962456840E1;-6,523679256E0;2,404304743E0;2,505031586E0
8,972456840E1;-4,537434578E-1;5,849599838E-1;3,173167706E-1
8,982456840E1;2,590140820E0;-2,974339485E0;-5,007951260E-1
8,992456840E1;4,321078300E0;-2,083916664E0;-9,280970097E-1
9,002456840E1;2,284907341E0;-2,145996094E-1;-1,981947422E-1
9,012456840E1;1,598559856E0;-2,854902267E0;-9,076495171E-1
9,022456840E1;-1,648424625E0;-1,270082474E0;2,206765652E0
9,032456840E1;-3,666717291E0;3,652181625E-1;3,044434786E0
9,042456840E1;-5,396870613E0;4,184263229E0;2,217782974E0
9,052456840E1;-1,348495483E-1;1,797280312E-1;4,743705988E-1
9,062456840E1;3,226548672E0;-2,337010384E0;-5,822072029E-1
9,072456840E1;5,424479008E0;-7,053403854E-1;-1,486971378E-1
9,082456840E1;1,191387653E0;-5,796270370E-1;-4,733002186E-1
9,092456840E1;2,290023327E0;-4,186414719E0;-3,700447083E-2
9,102456840E1;-9,186000824E-1;-1,747229099E0;1,734214544E0
9,112456840E1;-4,885406494E0;8,437371254E-1;3,526670933E0
9,122456840E1;-5,617944717E0;3,365864277E0;1,740281940E0
9,132456840E1;-4,422016144E-1;3,976840973E-1;1,367274523E-1
9,142456840E1;3,209780693E0;-1,714583397E0;-3,377774954E-1
9,152456840E1;3,524582386E0;7,374668121E-2;-1,601511121E0
9,162456840E1;6,047930717E-1;-5,721645355E-1;-8,129429817E-2
9,172456840E1;2,079246521E0;-2,915780067E0;5,795785189E-1
9,182456840E1;-1,766481876E0;-1,339563370E0;1,741168380E0
9,192456840E1;-5,290492058E0;1,057543755E0;3,129468203E0
9,202456840E1;-5,833727837E0;3,725473642E0;1,507193804E0
9,212456840E1;1,187769413E0;-9,181056023E-1;-3,983936310E-1
9,222456840E1;4,130784035E0;-1,001970291E0;-6,886541843E-1
9,232456840E1;3,632723331E0;-2,851200104E-1;-1,331813335E-1
9,242456840E1;7,709565163E-1;2,133188248E-1;2,405077219E-1
9,252456840E1;2,574827194E0;-4,325540066E0;-1,189808846E-1
9,262456840E1;-5,294270515E-1;-1,899584770E0;1,729789495E0
9,272456840E1;-5,525666237E0;2,575030327E-1;3,387669086E0
9,282456840E1;-4,521015167E0;3,375800133E0;2,885562897E0
9,292456840E1;-3,345003128E-1;-1,931633949E-1;8,339024782E-1
9,302456840E1;4,789534092E0;-2,943624496E0;-9,557120800E-1
9,312456840E1;3,410370588E0;-4,250259399E-1;-1,939716458E0
9,322456840E1;2,319564342E0;-6,944313049E-1;-1,358693123E0
9,332456840E1;1,749650955E0;-3,243998051E0;-8,381552696E-1
9,342456840E1;-1,252914906E0;-1,391090393E0;2,277476072E0
9,352456840E1;-2,778391838E0;1,666989326E-1;3,104266167E0
9,362456840E1;-7,075195789E0;3,266261578E0;2,512756348E0
9,372456840E1;-4,668335915E-1;4,481034279E-1;-6,725795269E-1
9,382456840E1;-4,668335915E-1;4,481034279E-1;-6,725795269E-1
9,392456840E1;-4,668335915E-1;4,481034279E-1;-6,725795269E-1
9,402456840E1;-4,668335915E-1;4,481034279E-1;-6,725795269E-1
9,412456840E1;-4,668335915E-1;4,481034279E-1;-6,725795269E-1
9,422456840E1;-4,668335915E-1;4,481034279E-1;-6,725795269E-1
9,432456840E1;-4,668335915E-1;4,481034279E-1;-6,725795269E-1
9,442456840E1;-4,668335915E-1;4,481034279E-1;-6,725795269E-1
9,452456840E1;-4,668335915E-1;4,481034279E-1;-6,725795269E-1
9,462456840E1;-4,668335915E-1;4,481034279E-1;-6,725795269E-1
9,472456840E1;-4,668335915E-1;4,481034279E-1;-6,725795269E-1
9,482456840E1;-4,668335915E-1;4,481034279E-1;-6,725795269E-1
9,492456840E1;-4,668335915E-1;4,481034279E-1;-6,725795269E-1
9,502456840E1;-4,668335915E-1;4,481034279E-1;-6,725795269E-1
9,512456840E1;-4,668335915E-1;4,481034279E-1;-6,725795269E-1
9,522456840E1;-4,668335915E-1;4,481034279E-1;-6,725795269E-1
9,532456840E1;-4,668335915E-1;4,481034279E-1;-6,725795269E-1
9,542456840E1;-4,668335915E-1;4,481034279E-1;-6,725795269E-1
9,552456840E1;-4,668335915E-1;4,481034279E-1;-6,725795269E-1
9,562456840E1;-4,668335915E-1;4,481034279E-1;-6,725795269E-1
9,572456840E1;-4,668335915E-1;4,481034279E-1;-6,725795269E-1
9,582456840E1;-4,668335915E-1;4,481034279E-1;-6,725795269E-1
9,592456840E1;-5,153404236E0;1,644476414E0;2,060839176E0
9,602456840E1;-5,153404236E0;1,644476414E0;2,060839176E0
9,612456840E1;1,174469471E0;-2,140542984E0;-7,216560841E-1
9,622456840E1;1,174469471E0;-2,140542984E0;-7,216560841E-1
9,632456840E1;4,287823677E0;-1,112889290E0;-9,348988533E-1
9,642456840E1;-1,293426037E0;-7,697525024E-1;-5,505084991E-4
9,652456840E1;2,765796661E0;-1,648913383E0;1,207559109E-1
9,662456840E1;1,402616501E-1;-2,696524143E0;1,919725657E0
9,672456840E1;1,402616501E-1;-2,696524143E0;1,919725657E0
9,682456840E1;-2,524598598E0;2,784861088E0;1,387982965E0
9,692456840E1;1,293309212E0;-1,454025269E0;9,865338802E-1
9,702456840E1;4,707143784E0;-2,019000053E0;-8,532445431E-1
9,712456840E1;3,416732073E0;-2,607612610E0;-1,913344622E0
9,722456840E1;-2,375051260E0;-8,222026825E-1;-1,977224946E0
9,732456840E1;6,854175568E0;-5,415132523E0;5,256222486E-1
9,742456840E1;-1,668861389E0;1,567864656E0;4,313213825E0
9,752456840E1;-2,958032131E0;-1,025257111E0;1,519630671E0
9,762456840E1;-2,922403336E0;4,164568901E0;5,434353352E-1
9,772456840E1;2,099826813E0;-1,546988487E0;3,922927380E-2
9,782456840E1;5,192625999E0;-2,508924484E0;-7,431527376E-1
9,792456840E1;2,990447044E0;-1,621994019E0;-5,755912066E-1
9,802456840E1;-2,496657372E-1;-1,120817184E0;-1,929130077E0
9,812456840E1;1,637766838E0;-2,815397739E0;-5,518763065E-1
9,822456840E1;-6,766247749E-1;-2,917033195E0;2,112866640E0
9,832456840E1;-5,865593910E0;2,425856829E0;2,638641834E0
9,842456840E1;-2,095152855E0;2,234142780E0;5,762784481E-1
9,852456840E1;2,475779057E0;-3,040590286E0;-1,700662374E0
9,862456840E1;5,789556503E0;-2,147912025E0;-1,381129742E0
9,872456840E1;4,498232841E0;-1,775741577E-3;-1,012911081E0
9,882456840E1;-1,136218548E0;-2,094134331E0;-4,604718685E-1
9,892456840E1;2,278871536E0;-2,119988441E0;-3,037309647E-2
9,902456840E1;-1,415410042E0;-2,366942883E0;1,765401125E0
9,912456840E1;-6,159048557E0;2,978625298E0;2,391937494E0
9,922456840E1;-1,492196560E0;2,397390127E0;4,004354477E-1
9,932456840E1;6,309919357E-1;-2,445173264E0;2,909967899E-1
9,942456840E1;4,935369968E0;-2,930718422E0;-1,211863756E0
9,952456840E1;3,923716545E0;1,129217148E-1;-6,220363379E-1
9,962456840E1;-8,699560165E-1;-1,145342827E0;-1,778209209E-2
9,972456840E1;2,295258522E0;-2,785712242E0;6,171202660E-2
9,982456840E1;-2,925825119E-1;-2,229120255E0;1,310419559E0
9,992456840E1;-4,804840565E0;1,500767946E0;2,574690342E0
1,000245684E2;-2,348985672E0;2,045177460E0;-6,889483929E-1
1,001245684E2;1,490015984E0;-2,340057373E0;-2,147036791E-1
1,002245684E2;4,841109753E0;-1,300286293E0;-1,606960773E0
1,003245684E2;2,890027285E0;-7,670402527E-3;-4,552280903E-1
1,004245684E2;-7,262878418E-1;-8,099832535E-1;-4,804818630E-1
1,005245684E2;1,846448898E0;-2,911053658E0;6,764945984E-1
1,006245684E2;4,123711586E-1;-3,032768250E0;2,223937750E0
1,007245684E2;-5,459430695E0;2,274779558E0;2,605473995E0
1,008245684E2;-2,937975407E0;2,534317017E0;-2,013726234E-1
1,009245684E2;1,746075630E0;-2,002305031E0;2,582752705E-1
1,010245684E2;4,654979706E0;-1,402105331E0;-9,229364395E-1
1,011245684E2;3,272607565E0;-5,605211258E-1;-7,371605635E-1
1,012245684E2;-1,362382650E0;-1,293348312E0;-1,292376518E-1
1,013245684E2;-1,362382650E0;-1,293348312E0;-1,292376518E-1
1,014245684E2;-1,362382650E0;-1,293348312E0;-1,292376518E-1
1,015245684E2;-1,362382650E0;-1,293348312E0;-1,292376518E-1
1,016245684E2;-1,362382650E0;-1,293348312E0;-1,292376518E-1
1,017245684E2;-1,362382650E0;-1,293348312E0;-1,292376518E-1
1,018245684E2;-1,362382650E0;-1,293348312E0;-1,292376518E-1
1,019245684E2;-1,362382650E0;-1,293348312E0;-1,292376518E-1
1,020245684E2;-1,362382650E0;-1,293348312E0;-1,292376518E-1
1,021245684E2;-1,362382650E0;-1,293348312E0;-1,292376518E-1
1,022245684E2;-1,362382650E0;-1,293348312E0;-1,292376518E-1
1,023245684E2;-1,362382650E0;-1,293348312E0;-1,292376518E-1
1,024245684E2;-1,362382650E0;-1,293348312E0;-1,292376518E-1
1,025245684E2;-1,362382650E0;-1,293348312E0;-1,292376518E-1
1,026245684E2;-1,362382650E0;-1,293348312E0;-1,292376518E-1
1,027245684E2;-1,362382650E0;-1,293348312E0;-1,292376518E-1
1,028245684E2;-1,362382650E0;-1,293348312E0;-1,292376518E-1
1,029245684E2;-1,362382650E0;-1,293348312E0;-1,292376518E-1
1,030245684E2;-1,362382650E0;-1,293348312E0;-1,292376518E-1
1,031245684E2;-1,362382650E0;-1,293348312E0;-1,292376518E-1
1,032245684E2;-1,362382650E0;-1,293348312E0;-1,292376518E-1
1,033245684E2;5,478051662E0;-1,128889084E0;-1,132526159E0
1,034245684E2;5,478051662E0;-1,128889084E0;-1,132526159E0
1,035245684E2;1,279245853E0;1,031703949E-1;6,633059978E-1
1,036245684E2;5,520825386E-1;-1,697857857E0;1,149731755E0
1,037245684E2;5,520825386E-1;-1,697857857E0;1,149731755E0
1,038245684E2;-7,425407887E0;1,355723381E0;1,644333601E0
1,039245684E2;-3,756202936E0;2,684005737E0;3,307712078E-1
1,040245684E2;4,835100174E-1;-7,354507446E-1;7,301397324E-1
1,041245684E2;3,701851606E0;-2,498349190E0;-1,860487819E0
1,042245684E2;2,595482588E0;4,243478775E-1;-8,604208231E-1
1,043245684E2;2,938289642E-1;-1,398400307E0;-1,348772407E0
1,044245684E2;3,266799450E0;-3,082024574E0;1,980491877E-1
1,045245684E2;-1,952382565E0;-8,312401772E-1;-1,235435009E-1
1,046245684E2;-5,177575111E0;1,618951082E0;2,117089748E0
1,047245684E2;-4,303268433E0;3,706519842E0;-2,639467716E-1
1,048245684E2;-1,682729721E-1;2,842702866E-1;-2,839932442E-1
1,049245684E2;3,550818443E0;-1,285343170E0;-2,464529276E-1
1,050245684E2;3,347941399E0;-6,618680954E-1;-1,665054917E0
1,051245684E2;1,121187210E0;2,841939926E-1;-2,230097055E-1
1,052245684E2;1,560858250E0;-3,670122147E0;-1,122329235E0
1,053245684E2;-1,149509430E0;-2,095639706E0;3,723876476E-1
1,054245684E2;-4,549433708E0;1,190420866E0;2,266156197E0
1,055245684E2;-5,490535736E0;3,347859859E0;1,113842010E0
1,056245684E2;4,084730148E-1;9,873723984E-1;-1,169934034E0
1,057245684E2;3,096995831E0;-1,664334297E0;-9,253168106E-2
1,058245684E2;3,093479872E0;-5,653095245E-1;-2,268550396E0
1,059245684E2;2,110161781E0;1,592788696E-1;-1,101258755E0
1,060245684E2;4,645400047E-1;-1,651853561E0;-3,631424904E-2
1,061245684E2;-1,546638966E0;-1,495946884E0;8,914849758E-1
1,062245684E2;-2,937540531E0;-6,589493752E-1;2,299316168E0
1,063245684E2;-6,328796387E0;3,613148212E0;2,044644356E0
1,064245684E2;-5,798749924E-1;1,714503288E0;-1,099317551E0
1,065245684E2;1,673197746E0;-1,494825363E0;-1,956586838E0
1,066245684E2;3,987578630E0;-3,530593872E0;-3,686946630E-1
1,067245684E2;4,092041492E0;-1,650697708E0;-4,602851868E-1
1,068245684E2;-1,195590973E0;-1,632155418E0;3,888845444E-2
1,069245684E2;-1,312932968E-1;-2,020679951E0;-4,739177227E-1
1,070245684E2;-5,006761551E-1;-8,925642967E-1;1,956557274E0
1,071245684E2;-6,726747036E0;3,694753647E0;2,665106773E0
1,072245684E2;-2,669646740E0;3,402823687E0;-5,455114841E-1
1,073245684E2;1,682867050E0;-3,626137733E0;-1,592827201E0
1,074245684E2;6,815726280E0;-3,294471741E0;6,684473753E-1
1,075245684E2;3,012014866E0;-7,754497528E-1;-3,393983841E-1
1,076245684E2;-6,183767319E-1;-1,507203102E0;-1,586112499E0
1,077245684E2;1,079752445E0;-2,842985630E0;-4,128043652E-1
1,078245684E2;-1,469771385E0;-1,871618271E0;2,350896358E0
1,079245684E2;-5,188158512E0;2,284389019E0;1,490114927E0
1,080245684E2;-1,466147900E0;2,340362549E0;5,419733524E-1
1,081245684E2;8,609986305E-1;-9,331102371E-1;-3,593449593E-1
1,082245684E2;5,485707283E0;-1,469265938E0;-9,503471851E-1
1,083245684E2;3,723001957E0;-7,240619659E-1;4,083749056E-1
1,084245684E2;-8,639149666E-1;4,379887581E-1;5,561478138E-1
1,085245684E2;2,303007603E0;-2,298929214E0;8,161571026E-1
1,086245684E2;-8,192300797E-2;-1,748085976E0;1,800956726E0
1,087245684E2;-8,192300797E-2;-1,748085976E0;1,800956726E0
1,088245684E2;-8,192300797E-2;-1,748085976E0;1,800956726E0
1,089245684E2;-8,192300797E-2;-1,748085976E0;1,800956726E0
1,090245684E2;-8,192300797E-2;-1,748085976E0;1,800956726E0
1,091245684E2;-8,192300797E-2;-1,748085976E0;1,800956726E0
1,092245684E2;-8,192300797E-2;-1,748085976E0;1,800956726E0
1,093245684E2;-8,192300797E-2;-1,748085976E0;1,800956726E0
1,094245684E2;-8,192300797E-2;-1,748085976E0;1,800956726E0
1,095245684E2;-8,192300797E-2;-1,748085976E0;1,800956726E0
1,096245684E2;-8,192300797E-2;-1,748085976E0;1,800956726E0
1,097245684E2;-8,192300797E-2;-1,748085976E0;1,800956726E0
1,098245684E2;-8,192300797E-2;-1,748085976E0;1,800956726E0
1,099245684E2;-8,192300797E-2;-1,748085976E0;1,800956726E0
1,100245684E2;-8,192300797E-2;-1,748085976E0;1,800956726E0
1,101245684E2;-8,192300797E-2;-1,748085976E0;1,800956726E0
1,102245684E2;-8,192300797E-2;-1,748085976E0;1,800956726E0
1,103245684E2;-8,192300797E-2;-1,748085976E0;1,800956726E0
1,104245684E2;-8,192300797E-2;-1,748085976E0;1,800956726E0
1,105245684E2;-8,192300797E-2;-1,748085976E0;1,800956726E0
1,106245684E2;-8,192300797E-2;-1,748085976E0;1,800956726E0
1,107245684E2;-8,192300797E-2;-1,748085976E0;1,800956726E0
1,108245684E2;-8,192300797E-2;-1,748085976E0;1,800956726E0
1,109245684E2;-1,244455338E0;-4,793062210E-1;1,814152360E0
1,110245684E2;-1,244455338E0;-4,793062210E-1;1,814152360E0
1,111245684E2;-6,649775028E0;3,088183403E0;1,841102481E0
1,112245684E2;1,365709305E-1;-2,490901947E-2;-7,018500566E-1
1,113245684E2;3,931357384E0;-3,314871788E0;1,822816133E-1
1,114245684E2;4,688932419E0;-1,082271576E0;-1,718768835E0
1,115245684E2;1,473927021E0;1,301964283E0;-7,134687901E-1
1,116245684E2;1,982534409E0;-2,546022892E0;-1,005782962E0
1,117245684E2;-1,054048061E0;-1,583808422E0;7,510263920E-1
1,118245684E2;-3,390933514E0;7,842843533E-1;3,075584412E0
1,119245684E2;-6,071888924E0;3,650663137E0;2,252975702E0
1,120245684E2;-7,024211884E-1;-1,229991913E-1;-2,121738195E-1
1,121245684E2;4,043278217E0;-1,991118431E0;-5,433753729E-1
1,122245684E2;3,213268757E0;-3,260431290E-1;-2,173796654E0
1,123245684E2;1,019555569E0;-5,320549011E-1;5,332415104E-1
1,124245684E2;1,762659550E0;-3,008585453E0;5,353116989E-2
1,125245684E2;-1,550799370E0;-1,799935818E0;1,026939631E0
1,126245684E2;-4,335510731E0;9,365072250E-1;3,650264978E0
1,127245684E2;-5,267192841E0;3,127224445E0;2,967609882E0
1,128245684E2;9,962921143E-1;-4,986109734E-1;-7,972739935E-1
1,129245684E2;3,923010349E0;2,810506821E-1;-8,226869106E-1
1,130245684E2;2,389480352E0;4,906530380E-1;-1,314342022E-1
1,131245684E2;-2,035228968E0;1,632165909E0;-1,694785357E-1
1,132245684E2;-8,562474251E-1;-4,822292328E-1;6,128261089E-1
1,133245684E2;2,534480095E-1;-3,802232742E0;-7,083530426E-1
1,134245684E2;-6,216777325E0;1,495582342E0;3,380700111E0
1,135245684E2;-3,407417774E0;3,138495445E0;1,273551702E0
1,136245684E2;-4,110250473E-1;-7,600631714E-1;7,113437653E-1
1,137245684E2;3,693016768E0;-1,588487625E-1;7,248663902E-2
1,138245684E2;3,932548761E0;-4,818401337E-1;-2,040594101E0
1,139245684E2;-2,967700958E-1;-2,743043900E-1;-1,299858093E-1
1,140245684E2;2,033265114E0;-3,135697842E0;1,185086608E0
1,141245684E2;-3,066821098E-1;-2,090954781E0;9,541068077E-1
1,142245684E2;-7,015892982E0;2,159736633E0;3,396875381E0
1,143245684E2;-2,961852551E0;2,920526505E0;1,076359510E0
1,144245684E2;-5,432238579E-1;-1,292508125E0;8,411355019E-1
1,145245684E2;4,409362316E0;-2,039370537E0;-8,576267958E-1
1,146245684E2;3,802938461E0;-1,607016563E0;-7,768013477E-1
1,147245684E2;-1,730686426E0;-3,253002167E-1;-2,649136782E-1
1,148245684E2;2,008958817E0;-2,834302425E0;1,658134460E-1
1,149245684E2;-9,057731628E-1;-2,185847759E0;1,404492617E0
1,150245684E2;-6,455664635E0;1,797321558E0;1,088318586E0
1,151245684E2;-3,284365654E0;3,881411076E0;6,847305298E-1
1,152245684E2;1,006413460E0;-2,085268974E0;5,396677256E-1
1,153245684E2;6,187587738E0;-2,240666389E0;-5,827966928E-1
1,154245684E2;1,164300203E0;1,610612869E-1;-2,238054276E-1
1,155245684E2;-6,950588226E-1;-1,641982079E0;-1,599618196E0
1,156245684E2;2,729428291E0;-2,151407242E0;-5,976653099E-2
1,157245684E2;-1,125569344E0;-9,817266464E-1;9,980752468E-1
1,158245684E2;-6,349133015E0;1,693919897E0;3,150895834E0
1,159245684E2;-1,956880093E0;2,867256641E0;-2,979900837E-1
1,160245684E2;2,082813263E0;-2,341410637E0;-4,464408159E-1
1,161245684E2;5,811646461E0;8,836784363E-1;-2,235449314E0
1,162245684E2;5,811646461E0;8,836784363E-1;-2,235449314E0
1,163245684E2;5,811646461E0;8,836784363E-1;-2,235449314E0
1,164245684E2;5,811646461E0;8,836784363E-1;-2,235449314E0
1,165245684E2;5,811646461E0;8,836784363E-1;-2,235449314E0
1,166245684E2;5,811646461E0;8,836784363E-1;-2,235449314E0
1,167245684E2;5,811646461E0;8,836784363E-1;-2,235449314E0
1,168245684E2;5,811646461E0;8,836784363E-1;-2,235449314E0
1,169245684E2;5,811646461E0;8,836784363E-1;-2,235449314E0
1,170245684E2;5,811646461E0;8,836784363E-1;-2,235449314E0
1,171245684E2;5,811646461E0;8,836784363E-1;-2,235449314E0
1,172245684E2;5,811646461E0;8,836784363E-1;-2,235449314E0
1,173245684E2;5,811646461E0;8,836784363E-1;-2,235449314E0
1,174245684E2;5,811646461E0;8,836784363E-1;-2,235449314E0
1,175245684E2;5,811646461E0;8,836784363E-1;-2,235449314E0
1,176245684E2;5,811646461E0;8,836784363E-1;-2,235449314E0
1,177245684E2;5,811646461E0;8,836784363E-1;-2,235449314E0
1,178245684E2;5,811646461E0;8,836784363E-1;-2,235449314E0
1,179245684E2;5,811646461E0;8,836784363E-1;-2,235449314E0
1,180245684E2;5,811646461E0;8,836784363E-1;-2,235449314E0
1,181245684E2;5,811646461E0;8,836784363E-1;-2,235449314E0
1,182245684E2;-1,133328915E0;2,049414635E0;6,812906265E-2
1,183245684E2;-1,133328915E0;2,049414635E0;6,812906265E-2
1,184245684E2;-1,133328915E0;2,049414635E0;6,812906265E-2
1,185245684E2;1,833689690E0;1,402387619E-1;-4,187645912E-1
1,186245684E2;1,833689690E0;1,402387619E-1;-4,187645912E-1
1,187245684E2;-1,751020908E0;-9,674539566E-1;1,023524046E0
1,188245684E2;-3,972392321E0;1,138466597E0;3,127337456E0
1,189245684E2;-7,835042953E0;3,786405325E0;2,083293200E0
1,190245684E2;5,655641556E-1;-3,070640564E-2;-2,386202812E-1
1,191245684E2;4,081582069E0;-2,983171463E0;-7,388044596E-1
1,192245684E2;4,199506283E0;-8,411092758E-1;-9,843297005E-1
1,193245684E2;1,252943993E0;2,176427841E-1;-8,321869373E-2
1,194245684E2;2,851444244E0;-3,641723156E0;-4,610238075E-1
1,195245684E2;-1,308535099E0;-1,256727695E0;2,795294046E0
1,196245684E2;-6,438568115E0;1,748627663E0;3,257596493E0
1,197245684E2;-4,220948219E0;3,363162518E0;1,584817052E0
1,198245684E2;2,957363129E-1;-1,178648472E0;6,431491375E-1
1,199245684E2;5,197249889E0;-8,292455673E-1;-4,914685488E-1
1,200245684E2;3,230940104E0;-2,560901642E-2;-6,692078114E-1
1,201245684E2;-1,745758772E0;-9,215078354E-1;2,564430237E-3
1,202245684E2;3,336646080E0;-3,434043407E0;-2,677731514E-1
1,203245684E2;-2,260437012E-1;-2,430265903E0;1,008317709E0
1,204245684E2;-6,293519020E0;2,874870300E0;2,669853210E0
1,205245684E2;-1,952069283E0;2,624313116E0;-7,450265884E-1
1,206245684E2;1,717664242E0;-3,412257195E0;-1,159075022E0
1,207245684E2;5,387969017E0;4,019165039E-2;-9,992276430E-1
1,208245684E2;4,006433487E0;6,536769867E-2;-1,602220535E-2
1,209245684E2;-2,069606304E0;-2,158135414E0;-3,291012049E-1
1,210245684E2;2,593762398E0;-3,886516094E0;-1,478238106E-1
1,211245684E2;-2,833537579E0;-5,062370300E-1;2,031331778E0
1,212245684E2;-6,082985401E0;2,951263189E0;2,087327003E0
1,213245684E2;-1,542688370E0;2,193336964E0;1,034733057E-1
1,214245684E2;3,456913471E0;-3,563867569E0;-6,862626076E-1
1,215245684E2;4,083981037E0;-1,317958832E0;-9,933047295E-1
1,216245684E2;2,414587498E0;7,720246315E-1;-6,277823448E-2
1,217245684E2;1,509041786E-1;-2,268503666E0;-5,976417065E-1
1,218245684E2;-9,883618355E-1;-1,431693077E0;2,270095348E-1
1,219245684E2;-3,598494053E0;-4,400248528E-1;3,666406393E0
1,220245684E2;-6,442982197E0;3,558017731E0;3,535286188E0
1,221245684E2;-2,844448090E-1;6,871061325E-1;-7,251369953E-2
1,222245684E2;3,967974663E0;-2,383474350E0;4,434733391E-1
1,223245684E2;3,977682829E0;1,563558578E-1;-2,066088200E0
1,224245684E2;2,522173405E0;2,593650818E-1;-7,017892599E-1
1,225245684E2;1,129085541E0;-2,441812038E0;-5,167669058E-1
1,226245684E2;-8,651986122E-1;-1,164479256E0;6,811656952E-1
1,227245684E2;-5,355916977E0;1,657271147E0;2,595741749E0
1,228245684E2;-4,628009796E0;4,847349644E0;1,677112460E0
1,229245684E2;5,565724373E-1;-8,882617950E-1;3,394198418E-1
1,230245684E2;4,986573219E0;-1,869820595E0;-1,131656170E0
1,231245684E2;3,516903639E0;-4,444513321E-1;-9,344730377E-1
1,232245684E2;4,354753494E-1;1,385383606E-1;4,071321487E-1
1,233245684E2;2,830321789E0;-4,145071983E0;1,404237747E-1
1,234245684E2;-5,576148033E-1;-1,700942039E0;1,965407372E0
1,235245684E2;-6,072994232E0;2,220634460E0;2,098458767E0
1,236245684E2;-3,479761600E0;2,960732698E0;1,165448189E0
1,237245684E2;-3,479761600E0;2,960732698E0;1,165448189E0
1,238245684E2;-3,479761600E0;2,960732698E0;1,165448189E0
1,239245684E2;-3,479761600E0;2,960732698E0;1,165448189E0
1,240245684E2;-3,479761600E0;2,960732698E0;1,165448189E0
1,241245684E2;-3,479761600E0;2,960732698E0;1,165448189E0
1,242245684E2;-3,479761600E0;2,960732698E0;1,165448189E0
1,243245684E2;-3,479761600E0;2,960732698E0;1,165448189E0
1,244245684E2;-3,479761600E0;2,960732698E0;1,165448189E0
1,245245684E2;5,723182678E0;-2,675377846E0;-1,328896165E0
1,246245684E2;5,723182678E0;-2,675377846E0;-1,328896165E0
1,247245684E2;5,723182678E0;-2,675377846E0;-1,328896165E0
1,248245684E2;2,254452705E0;-2,622279167E0;6,520543098E-1
1,249245684E2;2,254452705E0;-2,622279167E0;6,520543098E-1
1,250245684E2;2,254452705E0;-2,622279167E0;6,520543098E-1
1,251245684E2;2,254452705E0;-2,622279167E0;6,520543098E-1
1,252245684E2;-5,501275063E-1;2,017913342E0;-6,727842093E-1
1,253245684E2;-5,501275063E-1;2,017913342E0;-6,727842093E-1
1,254245684E2;-5,501275063E-1;2,017913342E0;-6,727842093E-1
1,255245684E2;2,775706768E0;-1,112913132E0;1,214030981E-1
1,256245684E2;5,511436462E-1;-1,081888199E0;-9,613043070E-1
1,257245684E2;5,511436462E-1;-1,081888199E0;-9,613043070E-1
1,258245684E2;5,511436462E-1;-1,081888199E0;-9,613043070E-1
1,259245684E2;-4,616315365E0;8,729541302E-1;1,756219625E0
1,260245684E2;-5,978039742E0;2,852509975E0;1,778044939E0
1,261245684E2;-1,847882271E-1;1,636487484E0;1,129118204E-1
1,262245684E2;1,205815315E0;-2,036703110E0;-3,295699358E-1
1,263245684E2;3,694448471E0;-5,238189697E-1;1,590424776E-1
1,264245684E2;3,985589504E0;-1,857976913E-1;-4,351128340E-1
1,265245684E2;-8,963150978E-1;-1,044124603E0;-8,515000343E-2
1,266245684E2;8,227615356E-1;-1,858739376E0;-5,538868904E-2
1,267245684E2;-3,921327591E-1;-1,964399338E0;8,808088303E-2
1,268245684E2;-4,149973869E0;1,036147833E0;3,041758537E0
1,269245684E2;-4,310674191E0;2,905982733E0;1,883997679E0
1,270245684E2;-7,563352585E-1;6,575279236E-1;-2,712469101E-1
1,271245684E2;1,487504482E0;-7,613239288E-1;-4,497129917E-1
1,272245684E2;4,113739491E0;-1,566590309E0;-2,073212862E-1
1,273245684E2;3,376009464E0;-8,172988892E-3;-1,774184704E-1
1,274245684E2;-4,307532310E-1;-2,406253815E-1;4,366710186E-1
1,275245684E2;1,041757107E0;-1,796250820E0;-5,101214647E-1
1,276245684E2;-1,823887825E-1;-2,382601738E0;4,179992676E-1
1,277245684E2;-5,732426643E0;1,791711569E0;2,293589592E0
1,278245684E2;-3,781477451E0;2,392122030E0;4,557795525E-1
1,279245684E2;4,212379456E-2;1,204554558E0;-9,150762558E-1
1,280245684E2;2,491700172E0;-1,325159073E0;-5,364847183E-1
1,281245684E2;4,599260807E0;-1,177797318E-1;-8,642010689E-1
1,282245684E2;2,941906929E0;1,620655060E-1;-1,778039932E-1
1,283245684E2;-1,274858952E0;-1,393249512E0;-3,480151892E-1
1,284245684E2;1,343404293E0;-1,697684288E0;-2,463469505E-1
1,285245684E2;-1,239690304E0;-2,096846581E0;1,668849349E0
1,286245684E2;-1,239690304E0;-2,096846581E0;1,668849349E0
1,287245684E2;-1,239690304E0;-2,096846581E0;1,668849349E0
1,288245684E2;-1,239690304E0;-2,096846581E0;1,668849349E0
1,289245684E2;-1,239690304E0;-2,096846581E0;1,668849349E0
1,290245684E2;-1,239690304E0;-2,096846581E0;1,668849349E0
1,291245684E2;-1,239690304E0;-2,096846581E0;1,668849349E0
1,292245684E2;-1,239690304E0;-2,096846581E0;1,668849349E0
1,293245684E2;-1,239690304E0;-2,096846581E0;1,668849349E0
1,294245684E2;-1,239690304E0;-2,096846581E0;1,668849349E0
1,295245684E2;-1,239690304E0;-2,096846581E0;1,668849349E0
1,296245684E2;-1,239690304E0;-2,096846581E0;1,668849349E0
1,297245684E2;-1,239690304E0;-2,096846581E0;1,668849349E0
1,298245684E2;-1,239690304E0;-2,096846581E0;1,668849349E0
1,299245684E2;-1,239690304E0;-2,096846581E0;1,668849349E0
1,300245684E2;-1,239690304E0;-2,096846581E0;1,668849349E0
1,301245684E2;-1,239690304E0;-2,096846581E0;1,668849349E0
1,302245684E2;-1,239690304E0;-2,096846581E0;1,668849349E0
1,303245684E2;-1,239690304E0;-2,096846581E0;1,668849349E0
1,304245684E2;-1,239690304E0;-2,096846581E0;1,668849349E0
1,305245684E2;-1,239690304E0;-2,096846581E0;1,668849349E0
1,306245684E2;-1,239690304E0;-2,096846581E0;1,668849349E0
1,307245684E2;-1,239690304E0;-2,096846581E0;1,668849349E0
1,308245684E2;-1,239690304E0;-2,096846581E0;1,668849349E0
1,309245684E2;-1,239690304E0;-2,096846581E0;1,668849349E0
1,310245684E2;9,632253647E-2;-1,430885792E0;1,170588136E0
1,311245684E2;-9,756040573E-1;-4,135160446E-1;1,526917458E0
1,312245684E2;-5,920727730E0;2,700207233E0;1,355131984E0
1,313245684E2;-3,527507782E-1;9,849524498E-1;-8,569154739E-1
1,314245684E2;1,386256218E0;-5,633955002E-1;-7,709424496E-1
1,315245684E2;4,208696365E0;2,711868286E-1;-1,484347224E0
1,316245684E2;3,674384832E0;-1,322860718E0;-3,110814095E-1
1,317245684E2;3,563961983E-1;-1,625154495E0;-1,002331257E0
1,318245684E2;1,455675125E0;-2,002706051E0;4,904084206E-1
1,319245684E2;4,978990555E-2;-1,472433090E0;1,337325335E0
1,320245684E2;-2,495149136E0;-6,061182022E-1;2,013383389E0
1,321245684E2;-5,651311398E0;4,177790642E0;1,050696135E0
1,322245684E2;2,650165558E-1;8,969707489E-1;-8,948340416E-1
1,323245684E2;8,406963348E-1;-9,067535400E-2;-1,174942255E-1
1,324245684E2;3,897016287E0;-2,979035378E0;-4,734289646E-2
1,325245684E2;3,959565878E0;-6,752748489E-1;-5,975831747E-1
1,326245684E2;-2,265214920E-1;-1,283432961E0;-5,058994293E-1
1,327245684E2;1,623697281E0;-1,567583561E0;1,015560269E0
1,328245684E2;-7,512001991E-1;-1,117440701E0;1,088280678E0
1,329245684E2;-4,543738842E0;6,961166859E-1;2,788002253E0
1,330245684E2;-4,446889877E0;2,545846939E0;1,122659564E0
1,331245684E2;1,048564911E-2;6,370739937E-1;-1,139815927E0
1,332245684E2;2,434836864E0;-9,064989090E-1;7,392834425E-1
1,333245684E2;4,901694298E0;-6,405677795E-1;-8,880484104E-1
1,334245684E2;1,308766603E0;-8,842086792E-2;8,034425974E-1
1,335245684E2;-6,984739304E-1;-1,381307602E0;2,353253365E-1
1,336245684E2;1,214256763E0;-2,452960014E0;-1,325922728E0
1,337245684E2;-1,440182209E0;-1,323476315E0;2,437609196E0
1,338245684E2;-4,941586971E0;2,020120621E0;1,386373520E0
1,339245684E2;-2,314855576E0;2,877008438E0;8,833607435E-1
1,340245684E2;9,337301254E-1;-9,981708527E-1;7,405114174E-2
1,341245684E2;2,926044226E0;-1,233838081E0;-6,320475340E-1
1,342245684E2;2,859663725E0;3,113946915E-1;-1,511771202E0
1,343245684E2;1,451104641E0;1,894645691E-1;-2,941285372E-1
1,344245684E2;1,447889328E0;-1,280008316E0;-7,898788452E-1
1,345245684E2;-1,210624218E0;-2,025475025E0;1,310123682E0
1,346245684E2;-1,739081860E0;-1,001148224E0;1,916809916E0
1,347245684E2;-5,763921261E0;1,321271896E0;2,023167133E0
1,348245684E2;-1,807764053E0;1,886780262E0;-3,522891998E-1
1,349245684E2;8,032269478E-1;-2,404177666E0;3,147813082E-1
1,350245684E2;3,955714703E0;-2,747275352E0;-1,518435240E0
1,351245684E2;3,724346876E0;-1,106679916E0;3,169033527E-1
1,352245684E2;-1,491628885E0;4,026231766E-1;-2,006518841E-1
1,353245684E2;2,932949066E0;-3,054117680E0;5,147778988E-2
1,354245684E2;3,512511253E-1;-8,777952194E-1;4,321730137E-1
1,355245684E2;-3,784576893E0;1,528017044E0;2,648335934E0
1,356245684E2;-5,006031990E0;3,812852383E0;2,050164461E0
1,357245684E2;-3,294663429E-1;-1,677579880E-1;-1,103038788E-1
1,358245684E2;2,110806942E0;-1,889230728E0;-1,267984033E0
1,359245684E2;4,717262268E0;-1,312718391E0;-4,681215286E-1
1,360245684E2;3,770394325E0;5,342578888E-2;-1,514984727E0
1,361245684E2;3,770394325E0;5,342578888E-2;-1,514984727E0
1,362245684E2;3,770394325E0;5,342578888E-2;-1,514984727E0
1,363245684E2;3,770394325E0;5,342578888E-2;-1,514984727E0
1,364245684E2;3,770394325E0;5,342578888E-2;-1,514984727E0
1,365245684E2;3,770394325E0;5,342578888E-2;-1,514984727E0
1,366245684E2;3,770394325E0;5,342578888E-2;-1,514984727E0
1,367245684E2;3,770394325E0;5,342578888E-2;-1,514984727E0
1,368245684E2;3,770394325E0;5,342578888E-2;-1,514984727E0
1,369245684E2;3,770394325E0;5,342578888E-2;-1,514984727E0
1,370245684E2;3,770394325E0;5,342578888E-2;-1,514984727E0
1,371245684E2;3,770394325E0;5,342578888E-2;-1,514984727E0
1,372245684E2;3,770394325E0;5,342578888E-2;-1,514984727E0
1,373245684E2;3,770394325E0;5,342578888E-2;-1,514984727E0
1,374245684E2;3,770394325E0;5,342578888E-2;-1,514984727E0
1,375245684E2;3,770394325E0;5,342578888E-2;-1,514984727E0
1,376245684E2;3,770394325E0;5,342578888E-2;-1,514984727E0
1,377245684E2;3,770394325E0;5,342578888E-2;-1,514984727E0
1,378245684E2;3,770394325E0;5,342578888E-2;-1,514984727E0
1,379245684E2;3,770394325E0;5,342578888E-2;-1,514984727E0
1,380245684E2;3,770394325E0;5,342578888E-2;-1,514984727E0
1,381245684E2;3,770394325E0;5,342578888E-2;-1,514984727E0
1,382245684E2;3,770394325E0;5,342578888E-2;-1,514984727E0
1,383245684E2;3,840981483E0;-3,831958771E0;-2,455083132E-1
1,384245684E2;3,840981483E0;-3,831958771E0;-2,455083132E-1
1,385245684E2;1,428678036E0;6,315450668E-1;-1,642382145E-2
1,386245684E2;-8,269319534E-1;-4,224351406E0;-8,716750145E-2
1,387245684E2;-1,075785160E0;-4,175175667E0;1,409427762E0
1,388245684E2;4,847870827E0;1,967052937E0;2,199998856E0
1,389245684E2;-6,525768757E0;4,532783508E0;2,197678089E0
1,390245684E2;-8,734636307E-1;4,264326096E-1;-8,007290363E-1
1,391245684E2;2,217926979E0;-1,465173721E0;-9,018944502E-1
1,392245684E2;4,424424171E0;-1,638326645E-1;-1,467800140E-2
1,393245684E2;3,410972834E0;3,548822403E-1;3,887693882E-1
1,394245684E2;-1,182500839E0;-1,507212639E0;-1,143022776E-1
1,395245684E2;2,408441544E0;-2,323618889E0;-7,106757164E-1
1,396245684E2;-2,248110771E0;-1,297999382E0;1,931020975E0
1,397245684E2;-4,804428101E0;1,338331461E0;2,431579113E0
1,398245684E2;-1,883171082E0;2,352029562E0;-4,111647606E-2
1,399245684E2;6,182160378E-1;-1,009616375E0;7,201659679E-2
1,400245684E2;3,660320759E0;-1,973340034E0;-6,960849762E-1
1,401245684E2;2,505586624E0;-1,754808426E-1;-1,433040142E0
1,402245684E2;1,404900551E0;-4,668474197E-1;-1,247060537E0
1,403245684E2;2,932135582E0;-2,471625805E0;-2,861931324E-1
1,404245684E2;8,415026665E-1;-1,822820663E0;1,604696035E0
1,405245684E2;-1,966955185E0;-3,144340515E-1;2,487266541E0
1,406245684E2;-5,416172028E0;3,189316034E0;2,765921354E0
1,407245684E2;1,630401611E-1;-2,280035019E-1;-8,068996668E-1
1,408245684E2;1,471199512E0;-9,554862976E-1;-1,541935205E-1
1,409245684E2;4,846936226E0;-2,152770996E0;-1,419395447E0
1,410245684E2;2,633947849E0;3,945608139E-1;-9,990745783E-1
1,411245684E2;-6,855916977E-1;-1,442561150E0;-5,196619034E-2
1,412245684E2;9,117097855E-1;-1,674494267E0;-9,367058277E-1
1,413245684E2;-6,761569977E-1;-2,576049805E0;7,762906551E-1
1,414245684E2;-6,698001385E0;4,197925568E0;2,470698833E0
1,415245684E2;-1,416245461E0;1,798780203E0;-7,507970333E-1
1,416245684E2;6,912031174E-1;-1,498148918E0;-4,008116722E-1
1,417245684E2;4,160867214E0;-2,330578804E0;-5,743602514E-1
1,418245684E2;2,934800625E0;-2,291946411E-1;-6,095203161E-1
1,419245684E2;1,100367546E0;-2,802257538E-1;-2,297199965E-1
1,420245684E2;1,889046669E0;-2,030949593E0;-3,115668297E-1
1,421245684E2;2,212858200E-2;-1,737104416E0;2,023297787E0
1,422245684E2;-1,701591015E0;-1,806041241E0;2,920733452E0
1,423245684E2;-6,700615883E0;3,470345020E0;2,059668064E0
1,424245684E2;2,339855194E0;-1,161740303E0;-1,109748006E0
1,425245684E2;1,259132862E0;-8,315582275E-1;-3,983473778E-1
1,426245684E2;5,220691681E0;7,184391022E-1;-7,755831480E-1
1,427245684E2;1,438415051E0;-4,433269501E-1;-7,148114443E-1
1,428245684E2;-4,843096733E-1;3,361487389E-1;2,703305483E-1
1,429245684E2;-3,923277855E-1;-1,047751427E0;4,993841648E-1
1,430245684E2;9,208393097E-2;-2,348777294E0;2,221648693E-1
1,431245684E2;-6,714850903E0;1,785684347E0;2,232271910E0
1,432245684E2;-2,564311981E0;2,802454233E0;1,501388907E0
1,433245684E2;8,554458618E-2;1,743478775E-1;-5,294120312E-2
1,434245684E2;3,385400772E0;-1,619122505E0;-1,368004680E0
1,435245684E2;3,385400772E0;-1,619122505E0;-1,368004680E0
1,436245684E2;3,385400772E0;-1,619122505E0;-1,368004680E0
1,437245684E2;3,385400772E0;-1,619122505E0;-1,368004680E0
1,438245684E2;3,385400772E0;-1,619122505E0;-1,368004680E0
1,439245684E2;3,385400772E0;-1,619122505E0;-1,368004680E0
1,440245684E2;3,385400772E0;-1,619122505E0;-1,368004680E0
1,441245684E2;3,385400772E0;-1,619122505E0;-1,368004680E0
1,442245684E2;3,385400772E0;-1,619122505E0;-1,368004680E0
1,443245684E2;3,385400772E0;-1,619122505E0;-1,368004680E0
1,444245684E2;3,385400772E0;-1,619122505E0;-1,368004680E0
1,445245684E2;3,385400772E0;-1,619122505E0;-1,368004680E0
1,446245684E2;3,385400772E0;-1,619122505E0;-1,368004680E0
1,447245684E2;3,385400772E0;-1,619122505E0;-1,368004680E0
1,448245684E2;3,385400772E0;-1,619122505E0;-1,368004680E0
1,449245684E2;3,385400772E0;-1,619122505E0;-1,368004680E0
1,450245684E2;3,385400772E0;-1,619122505E0;-1,368004680E0
1,451245684E2;3,385400772E0;-1,619122505E0;-1,368004680E0
1,452245684E2;3,385400772E0;-1,619122505E0;-1,368004680E0
1,453245684E2;3,385400772E0;-1,619122505E0;-1,368004680E0
1,454245684E2;-2,716093063E-1;-1,571292877E0;1,823721647E0
1,455245684E2;-2,716093063E-1;-1,571292877E0;1,823721647E0
1,456245684E2;-2,716093063E-1;-1,571292877E0;1,823721647E0
1,457245684E2;-2,716093063E-1;-1,571292877E0;1,823721647E0
1,458245684E2;-2,716093063E-1;-1,571292877E0;1,823721647E0
1,459245684E2;4,399260044E0;-1,899624825E0;-9,589461088E-1
1,460245684E2;3,277844429E0;-1,081480980E0;5,765676498E-2
1,461245684E2;3,277844429E0;-1,081480980E0;5,765676498E-2
1,462245684E2;2,968044758E0;-2,295290947E0;5,715081692E-1
1,463245684E2;-4,420909882E-1;-1,861474991E0;3,388416767E-1
1,464245684E2;-5,783532143E0;1,686290741E0;3,080728769E0
1,465245684E2;-3,085400105E0;2,660026550E0;1,090141058E0
1,466245684E2;-8,093380928E-1;1,073296547E0;-5,883994102E-1
1,467245684E2;3,048324585E0;-1,077202797E0;1,972310543E-1
1,468245684E2;3,222483635E0;1,462923527E0;-5,030730963E-1
1,469245684E2;2,231464863E0;2,132940292E-1;2,604049444E-1
1,470245684E2;-1,368174553E0;-6,458778381E-1;6,020840406E-1
1,471245684E2;1,225813866E0;-1,787213802E0;-8,675353527E-1
1,472245684E2;-2,251340389E0;-6,938643456E-1;1,841763616E0
1,473245684E2;-4,493723392E0;1,933749199E0;1,693352461E0
1,474245684E2;-1,666069984E0;3,465349197E0;6,770836115E-1
1,475245684E2;8,704071045E-1;-1,754715443E0;-3,340799809E-1
1,476245684E2;3,458904028E0;-6,885023117E-1;-9,070709944E-1
1,477245684E2;2,215171814E0;-1,326264381E0;2,404960632E0
1,478245684E2;1,154215336E0;-1,291742325E0;5,124706030E-1
1,479245684E2;6,630420685E-2;9,496731758E-1;-4,754037857E-1
1,480245684E2;-1,517123699E0;-7,564487457E-1;8,613600731E-1
1,481245684E2;-4,143269539E0;1,525635719E-1;2,540713787E0
1,482245684E2;-4,687327862E0;2,271363497E0;1,346431613E0
1,483245684E2;-4,870424271E-1;1,449469566E0;-7,864787579E-1
1,484245684E2;1,371243000E0;-2,770938873E0;-8,368632793E-1
1,485245684E2;4,208038330E0;-1,462753296E0;-1,680616140E-1
1,486245684E2;2,819419861E0;-5,747890472E-1;3,803893328E-1
1,487245684E2;9,810943604E-1;1,540808678E-1;-9,484153986E-1
1,488245684E2;1,674715996E0;-2,452530384E0;-2,474818230E-1
1,489245684E2;-2,407856941E0;-1,605916023E0;2,014087200E0
1,490245684E2;-4,924057007E0;-1,592681408E0;3,059368134E-1
1,491245684E2;-5,371170044E-1;1,208522320E0;5,212514400E-1
1,492245684E2;4,012169838E-1;2,937498093E-1;-7,627301216E-1
1,493245684E2;4,076144218E0;2,144166470E0;-3,055771828E0
1,494245684E2;3,018856049E0;-1,595907211E0;-8,974597454E-1
1,495245684E2;-9,499690533E-1;1,320452690E0;2,117248058E0
1,496245684E2;4,392320156E0;-5,149808884E0;2,208762169E-1
1,497245684E2;-2,538790703E-1;-6,620955467E-1;3,728305340E0
1,498245684E2;-2,946041107E0;-1,197292805E0;1,809030771E0
1,499245684E2;-2,242850780E0;3,588412285E0;2,599433184E0
1,500245684E2;-2,309431553E0;1,002203465E0;-1,792075872E0
1,501245684E2;3,915157795E0;-2,412234306E0;1,382987022E0
1,502245684E2;3,558644056E0;5,030632019E-3;-3,788642883E-1
1,503245684E2;2,697706461E0;-6,603832245E-1;5,699027777E-1
1,504245684E2;-9,643516541E-1;-5,228509903E-1;1,556779146E-1
1,505245684E2;2,492645741E0;-2,746595383E0;5,271077156E-1
1,506245684E2;-1,410365105E0;-1,308546543E0;1,218188524E0
1,507245684E2;-4,656626701E0;-2,395720482E-1;2,979856491E0
1,508245684E2;-4,480848312E0;3,553146124E0;7,107181549E-1
1,509245684E2;-3,570961952E-1;-7,540369034E-1;-1,002142429E-1
1,510245684E2;-3,570961952E-1;-7,540369034E-1;-1,002142429E-1
1,511245684E2;-3,570961952E-1;-7,540369034E-1;-1,002142429E-1
1,512245684E2;-3,570961952E-1;-7,540369034E-1;-1,002142429E-1
1,513245684E2;-3,570961952E-1;-7,540369034E-1;-1,002142429E-1
1,514245684E2;-3,570961952E-1;-7,540369034E-1;-1,002142429E-1
1,515245684E2;-3,570961952E-1;-7,540369034E-1;-1,002142429E-1
1,516245684E2;-3,570961952E-1;-7,540369034E-1;-1,002142429E-1
1,517245684E2;-3,570961952E-1;-7,540369034E-1;-1,002142429E-1
1,518245684E2;-3,570961952E-1;-7,540369034E-1;-1,002142429E-1
1,519245684E2;-3,570961952E-1;-7,540369034E-1;-1,002142429E-1
1,520245684E2;-3,570961952E-1;-7,540369034E-1;-1,002142429E-1
1,521245684E2;-3,570961952E-1;-7,540369034E-1;-1,002142429E-1
1,522245684E2;-3,570961952E-1;-7,540369034E-1;-1,002142429E-1
1,523245684E2;-3,570961952E-1;-7,540369034E-1;-1,002142429E-1
1,524245684E2;-3,570961952E-1;-7,540369034E-1;-1,002142429E-1
1,525245684E2;-3,570961952E-1;-7,540369034E-1;-1,002142429E-1
1,526245684E2;-3,570961952E-1;-7,540369034E-1;-1,002142429E-1
1,527245684E2;-3,570961952E-1;-7,540369034E-1;-1,002142429E-1
1,528245684E2;-3,570961952E-1;-7,540369034E-1;-1,002142429E-1
1,529245684E2;-3,570961952E-1;-7,540369034E-1;-1,002142429E-1
1,530245684E2;-3,570961952E-1;-7,540369034E-1;-1,002142429E-1
1,531245684E2;-1,502084732E-1;-1,850586414E0;-1,202116013E-1
1,532245684E2;-1,502084732E-1;-1,850586414E0;-1,202116013E-1
1,533245684E2;-3,828320026E0;1,711354733E0;6,728188992E-1
1,534245684E2;-4,966688156E-1;1,374650002E0;-5,811828375E-1
1,535245684E2;1,796651840E0;-1,512989044E0;-1,140018702E-1
1,536245684E2;3,835037470E0;-1,337703705E0;-8,603498936E-1
1,537245684E2;3,056873798E0;2,360267639E-1;-8,963613510E-1
1,538245684E2;6,246490479E-1;-1,209604263E0;-4,624464512E-1
1,539245684E2;1,202985287E0;-3,099524021E0;-8,039391041E-1
1,540245684E2;2,282638550E-1;-1,740286827E0;1,065145254E0
1,541245684E2;-3,998312235E0;8,211998940E-1;1,721193910E0
1,542245684E2;-3,086471081E0;3,249161243E0;1,469529867E0
1,543245684E2;7,461128235E-1;-7,408804893E-1;-2,548117638E-1
1,544245684E2;3,387816906E0;-1,094843864E0;-1,042685509E0
1,545245684E2;3,131925344E0;-3,308458328E-1;-1,857271910E0
1,546245684E2;2,041872501E0;-1,131820679E-1;-9,217301607E-1
1,547245684E2;1,236617088E0;-2,652919292E0;8,713972569E-2
1,548245684E2;-1,830149174E0;-5,467867851E-1;1,245830536E0
1,549245684E2;-1,406428337E0;-2,001430035E0;1,128052235E0
1,550245684E2;-5,893411160E0;2,515729427E0;1,856008649E0
1,551245684E2;-8,786201477E-1;1,497536659E0;-1,016114235E0
1,552245684E2;2,072815895E-1;-1,867475033E0;-1,488308668E0
1,553245684E2;4,313499928E0;-2,213962555E0;-1,304446816E0
1,554245684E2;2,569542170E0;-2,485923767E-1;3,087775707E-1
1,555245684E2;1,601424694E0;-2,140645981E0;-1,056772828E0
1,556245684E2;3,868819714E0;-6,548794746E0;2,917232513E-1
1,557245684E2;-2,696295261E0;-1,446686268E0;2,305469513E0
1,558245684E2;-6,621725082E0;4,629194260E0;1,998343706E0
1,559245684E2;-2,368278027E0;1,538627148E0;-2,012919188E-1
1,560245684E2;1,744076252E0;-4,808469772E0;-1,425083637E0
1,561245684E2;6,787207127E0;-3,935572624E0;-1,442360759E0
1,562245684E2;3,819095612E0;-9,560737610E-1;2,306101799E0
1,563245684E2;5,246243477E-1;-2,754942417E0;1,011775255E0
1,564245684E2;1,838343143E0;-1,745495796E0;-1,076824665E-1
1,565245684E2;-3,889080524E0;-3,720173836E-1;9,988675117E-1
1,566245684E2;-1,779781342E0;3,299110413E0;3,056108952E-1
1,567245684E2;1,880491257E0;2,917561054E0;-8,449651003E-1
1,568245684E2;4,936658859E0;-1,920264244E0;-2,945342064E-1
1,569245684E2;3,409242392E0;9,251589775E-1;-8,146301508E-1
1,570245684E2;-1,535574675E0;-4,859933853E-1;-1,157877445E0
1,571245684E2;3,212119579E0;-4,679385185E0;-1,486571193E0
1,572245684E2;-1,314595699E0;-2,108130455E0;1,707162619E0
1,573245684E2;-1,314595699E0;-2,108130455E0;1,707162619E0
1,574245684E2;2,391494274E0;1,021831989E0;-1,243456841E0
1,575245684E2;3,003658295E0;-2,244416237E0;-3,824926615E-1
1,576245684E2;3,003658295E0;-2,244416237E0;-3,824926615E-1
1,577245684E2;3,003658295E0;-2,244416237E0;-3,824926615E-1
1,578245684E2;1,886079788E0;-2,985972881E0;1,270643473E0
1,579245684E2;1,886079788E0;-2,985972881E0;1,270643473E0
1,580245684E2;1,886079788E0;-2,985972881E0;1,270643473E0
1,581245684E2;1,886079788E0;-2,985972881E0;1,270643473E0
1,582245684E2;1,490561962E0;-1,573051453E0;1,649857759E-1
1,583245684E2;1,490561962E0;-1,573051453E0;1,649857759E-1
1,584245684E2;1,490561962E0;-1,573051453E0;1,649857759E-1
1,585245684E2;-7,794475555E-1;-2,609038830E0;-7,185814381E-1
1,586245684E2;1,770399570E0;-3,377888680E0;5,878353119E-1
1,587245684E2;-4,320235729E0;1,290684700E0;3,401272297E0
1,588245684E2;-7,182236671E0;4,384533405E0;1,530413151E0
1,589245684E2;4,681620598E-1;1,014578342E0;-1,064619184E0
1,590245684E2;1,855271816E0;-1,067973137E0;7,474762201E-1
1,591245684E2;5,568557262E0;-6,047649384E-1;-1,426449537E0
1,592245684E2;1,534152508E0;5,515098572E-3;9,480595589E-2
1,593245684E2;2,219877243E-1;-1,463246346E0;-5,102468729E-1
1,594245684E2;-1,814786434E0;-3,518016338E0;7,427921295E-1
1,595245684E2;-4,702149391E0;2,925963402E-1;3,104413033E0
1,596245684E2;-6,798583984E0;3,271120310E0;-3,212840557E-1
1,597245684E2;3,464574814E-1;-6,063895226E-1;-1,536816597E0
1,598245684E2;3,675207138E0;-1,274017334E0;-1,137632132E-1
1,599245684E2;3,238283634E0;-1,195549965E0;-1,486496925E0
1,600245684E2;6,909465790E-1;1,078071594E-1;2,190116405E0
1,601245684E2;4,441270828E0;-2,796231270E0;3,371475935E-1
1,602245684E2;-1,243466854E0;-1,292057514E0;1,406938076E0
1,603245684E2;-6,251662731E0;1,459732056E0;1,745444298E0
1,604245684E2;-3,510801792E0;4,537048340E0;7,647060156E-1
1,605245684E2;1,848745346E0;-1,647673607E0;-1,305940509E0
1,606245684E2;5,698177814E0;8,500957489E-2;-2,432893991E0
1,607245684E2;3,813874006E0;3,702535629E-1;-8,459546566E-1
1,608245684E2;-6,503658295E-1;-7,703704834E-1;6,794947386E-1
1,609245684E2;1,498545170E0;-1,773118973E0;4,228609800E-1
1,610245684E2;-1,534438610E0;-2,105849743E0;1,037233829E0
1,611245684E2;-5,979494095E0;1,035475016E0;1,641947389E0
1,612245684E2;-2,441057682E0;4,113221169E0;1,821345091E-1
1,613245684E2;1,598565102E0;-2,426623821E0;2,038092613E-1
1,614245684E2;5,829895020E0;-1,308454514E0;-5,521910191E-1
1,615245684E2;3,250545025E0;-7,491512299E-1;-4,467022419E-2
1,616245684E2;-8,035693169E-1;-8,720607758E-1;-3,892450333E-1
1,617245684E2;1,400058746E0;-1,329650402E0;9,080338478E-2
1,618245684E2;-1,223080635E0;-2,476961136E0;7,975573540E-1
1,619245684E2;-7,093149662E0;2,754969597E0;2,099333048E0
1,620245684E2;-1,012804508E0;3,335133553E0;-4,812728167E-1
1,621245684E2;1,926164627E0;-2,404253006E0;-3,166487217E-1
1,622245684E2;1,926164627E0;-2,404253006E0;-3,166487217E-1
1,623245684E2;1,926164627E0;-2,404253006E0;-3,166487217E-1
1,624245684E2;1,926164627E0;-2,404253006E0;-3,166487217E-1
1,625245684E2;1,926164627E0;-2,404253006E0;-3,166487217E-1
1,626245684E2;1,926164627E0;-2,404253006E0;-3,166487217E-1
1,627245684E2;1,926164627E0;-2,404253006E0;-3,166487217E-1
1,628245684E2;1,926164627E0;-2,404253006E0;-3,166487217E-1
1,629245684E2;1,926164627E0;-2,404253006E0;-3,166487217E-1
1,630245684E2;1,926164627E0;-2,404253006E0;-3,166487217E-1
1,631245684E2;1,926164627E0;-2,404253006E0;-3,166487217E-1
1,632245684E2;1,926164627E0;-2,404253006E0;-3,166487217E-1
1,633245684E2;1,926164627E0;-2,404253006E0;-3,166487217E-1
1,634245684E2;1,926164627E0;-2,404253006E0;-3,166487217E-1
1,635245684E2;1,926164627E0;-2,404253006E0;-3,166487217E-1
1,636245684E2;1,926164627E0;-2,404253006E0;-3,166487217E-1
1,637245684E2;1,926164627E0;-2,404253006E0;-3,166487217E-1
1,638245684E2;1,926164627E0;-2,404253006E0;-3,166487217E-1
1,639245684E2;1,926164627E0;-2,404253006E0;-3,166487217E-1
1,640245684E2;1,926164627E0;-2,404253006E0;-3,166487217E-1
1,641245684E2;-2,528639317E0;-1,308924198E0;2,976249695E0
1,642245684E2;-2,528639317E0;-1,308924198E0;2,976249695E0
1,643245684E2;-2,528639317E0;-1,308924198E0;2,976249695E0
1,644245684E2;3,514892101E0;-1,702762604E0;-4,980609417E-1
1,645245684E2;2,783086777E0;-1,279733658E0;-1,734054327E0
1,646245684E2;2,716688156E0;-5,585260391E-1;-1,372497082E-1
1,647245684E2;2,484779835E0;-1,623649120E0;-3,655717373E-1
1,648245684E2;-1,194713593E0;-6,079783440E-1;1,514124036E0
1,649245684E2;-1,377090931E0;-1,247014523E0;3,878560305E0
1,650245684E2;-5,109255791E0;1,957710505E0;1,923018575E0
1,651245684E2;-2,077679634E-1;1,958582878E0;-1,161970973E0
1,652245684E2;2,461075306E0;-1,846590042E0;-8,176988363E-1
1,653245684E2;4,456330299E0;-1,119438171E0;2,185747623E-1
1,654245684E2;3,214562893E0;-1,363512993E0;6,044740677E-1
1,655245684E2;-8,378438950E-1;-1,758268356E0;-1,388247132E0
1,656245684E2;1,676705837E0;-2,035671711E0;-1,349940300E-1
1,657245684E2;-1,500525475E0;-5,062260628E-1;3,221018314E-1
1,658245684E2;-5,656957626E0;2,881264210E0;2,119181395E0
1,659245684E2;-2,234607697E0;2,766636372E0;-5,512964725E-1
1,660245684E2;2,046228409E0;-2,238596916E0;-8,612046242E-1
1,661245684E2;2,876388073E0;-6,981372833E-1;-1,351336122E0
1,662245684E2;4,542965889E0;-1,302193642E0;-6,002298594E-1
1,663245684E2;-1,165454865E0;-8,220987320E-1;-3,636229038E-1
1,664245684E2;1,683023930E0;-1,859930038E0;1,237788200E-1
1,665245684E2;-6,281275749E-1;-2,216279030E0;5,559992790E-1
1,666245684E2;-7,258198738E0;1,784216881E0;1,749934196E0
1,667245684E2;-3,025946617E0;1,911151886E0;-1,214127302E0
1,668245684E2;-8,671078682E-1;-5,305981636E-1;1,437039375E-1
1,669245684E2;5,210756302E0;-3,496079445E0;-6,338392496E-1
1,670245684E2;4,330958843E0;-4,398660660E-1;-7,877463102E-1
1,671245684E2;3,562541008E-1;3,230924606E-1;1,380779862E0
1,672245684E2;2,925539017E0;-3,158119202E0;1,591145873E0
1,673245684E2;-2,645891666E0;-2,778817177E0;3,821778297E-1
1,674245684E2;-5,324031830E0;8,446893692E-1;3,194476128E0
1,675245684E2;-7,786914349E0;4,195373535E0;1,699789762E0
1,676245684E2;3,844351768E-1;-1,235874653E0;6,091922522E-1
1,677245684E2;3,507629871E0;5,150146484E-1;-7,267552614E-1
1,678245684E2;3,307586670E0;-1,377926826E0;-2,506924629E0
1,679245684E2;2,476214886E0;5,525979996E-1;-7,632980347E-1
1,680245684E2;1,430813789E0;-2,367566109E0;2,139365673E-2
1,681245684E2;-1,014513493E0;-1,167558193E0;2,988159657E0
1,682245684E2;-7,735018730E-1;-1,245788574E0;1,945654392E0
1,683245684E2;-6,101741791E0;2,668726444E0;9,678628445E-1
1,684245684E2;-6,742453575E-1;9,045104980E-1;-5,744855404E-1
1,685245684E2;7,412199974E-1;-2,537838936E0;2,095557451E-1
1,686245684E2;5,045752525E0;-1,239368439E0;-8,488354683E-1
1,687245684E2;2,697731256E0;4,228544235E-1;6,205757856E-1
1,688245684E2;-5,121302605E-1;-5,965366364E-1;-1,251655817E-1
1,689245684E2;2,108937263E0;-2,289603233E0;-1,569890976E-2
1,690245684E2;-4,579272270E-1;-1,169836521E0;1,564154506E0
1,691245684E2;-5,520231247E0;1,041290283E0;1,547921896E0
1,692245684E2;-2,685907364E0;2,118685484E0;-8,737995625E-1
1,693245684E2;9,470930099E-1;2,949333191E-2;-3,124061823E-1
1,694245684E2;2,806067467E0;-1,509205818E0;-5,918025970E-3
1,695245684E2;3,400387526E0;8,368806839E-1;-1,260768294E0
1,696245684E2;3,400387526E0;8,368806839E-1;-1,260768294E0
1,697245684E2;3,400387526E0;8,368806839E-1;-1,260768294E0
1,698245684E2;3,400387526E0;8,368806839E-1;-1,260768294E0
1,699245684E2;3,400387526E0;8,368806839E-1;-1,260768294E0
1,700245684E2;3,400387526E0;8,368806839E-1;-1,260768294E0
1,701245684E2;3,400387526E0;8,368806839E-1;-1,260768294E0
1,702245684E2;3,400387526E0;8,368806839E-1;-1,260768294E0
1,703245684E2;3,400387526E0;8,368806839E-1;-1,260768294E0
1,704245684E2;3,400387526E0;8,368806839E-1;-1,260768294E0
1,705245684E2;3,400387526E0;8,368806839E-1;-1,260768294E0
1,706245684E2;3,400387526E0;8,368806839E-1;-1,260768294E0
1,707245684E2;3,400387526E0;8,368806839E-1;-1,260768294E0
1,708245684E2;3,400387526E0;8,368806839E-1;-1,260768294E0
1,709245684E2;3,400387526E0;8,368806839E-1;-1,260768294E0
1,710245684E2;3,400387526E0;8,368806839E-1;-1,260768294E0
1,711245684E2;3,400387526E0;8,368806839E-1;-1,260768294E0
1,712245684E2;3,400387526E0;8,368806839E-1;-1,260768294E0
1,713245684E2;3,400387526E0;8,368806839E-1;-1,260768294E0
1,714245684E2;3,400387526E0;8,368806839E-1;-1,260768294E0
1,715245684E2;3,400387526E0;8,368806839E-1;-1,260768294E0
1,716245684E2;-4,659175873E-3;-1,919349670E0;9,959611893E-1
1,717245684E2;-4,659175873E-3;-1,919349670E0;9,959611893E-1
1,718245684E2;-1,630121708E0;1,916598320E0;1,945092678E-1
1,719245684E2;1,941569328E0;-1,556676865E0;-1,569805145E-1
1,720245684E2;1,941569328E0;-1,556676865E0;-1,569805145E-1
1,721245684E2;2,525506020E0;-2,057237625E-1;-1,855147600E0
1,722245684E2;5,004639626E-1;-7,208309174E-1;1,359140515E0
1,723245684E2;3,744652748E0;-2,935199738E-1;8,769551516E-1
1,724245684E2;-5,669784546E-2;-4,127945900E-1;2,192036152E0
1,725245684E2;-7,658877373E-1;-1,954772472E0;2,339983702E0
1,726245684E2;-2,932521820E0;2,785439014E0;4,763228893E0
1,727245684E2;-2,140464783E-1;9,770913124E-1;3,656594753E-1
1,728245684E2;1,435236931E-1;-3,724017143E-1;2,605061054E0
1,729245684E2;4,246476173E0;-1,502552986E0;8,625006676E-2
1,730245684E2;2,852463007E0;-2,857794762E0;-1,786564112E0
1,731245684E2;-1,234932184E0;3,046083450E-1;4,131719589E0
1,732245684E2;3,624298573E0;-2,289155483E0;1,857288361E0
1,733245684E2;2,824426174E0;-6,473231316E-1;4,066614151E0
1,734245684E2;-2,444758415E0;-1,495866776E-1;3,615580082E0
1,735245684E2;-2,145348072E0;8,557734489E-1;1,379392862E0
1,736245684E2;-1,113457680E0;2,186612606E0;1,548967361E-1
1,737245684E2;8,475427628E-1;8,585219383E-1;1,143707275E0
1,738245684E2;3,032324553E0;-2,921999931E0;5,809835196E-1
1,739245684E2;4,609073639E0;-1,534352303E0;-1,129748821E-1
1,740245684E2;5,975399017E-1;-1,632615089E0;5,759918690E-1
1,741245684E2;2,749754429E0;-8,354258537E-1;1,959574103E0
1,742245684E2;-2,042720318E0;-9,693102837E-1;2,134407520E0
1,743245684E2;-3,072445869E0;-1,614303589E0;3,717092752E0
1,744245684E2;-3,877000332E0;2,228803396E0;3,328602552E0
1,745245684E2;1,109283447E0;-2,840999603E0;1,106057167E-1
1,746245684E2;2,179658890E0;1,319944859E0;3,150459528E-1
1,747245684E2;2,626597881E0;-1,087666512E0;-3,914790154E-1
1,748245684E2;3,803240538E0;-2,331478119E0;3,576879501E-1
1,749245684E2;-3,648605347E-1;-3,207826614E-1;8,828226328E-1
1,750245684E2;1,644332886E0;-1,824534416E0;2,909922600E-1
1,751245684E2;1,562023640E0;-2,612554550E0;9,612991810E-1
1,752245684E2;-5,141544819E0;1,313979864E0;4,055750370E0
1,753245684E2;-3,458129883E0;2,064582586E0;1,431854725E0
1,754245684E2;-1,666849613E0;1,405591488E0;5,133931637E-1
1,755245684E2;4,584264755E-2;-2,026157379E0;1,677325606E0
1,756245684E2;4,557715893E0;-4,158370972E0;-7,315130234E-1
1,757245684E2;3,016868353E0;-3,338060379E-1;4,260417223E-1
1,758245684E2;9,425001144E-1;-9,808502197E-1;6,548213959E-1
1,759245684E2;-5,682325363E-1;-9,542379379E-1;1,768136144E0
1,760245684E2;-6,297402382E-1;-1,386907101E0;1,404327631E0
1,761245684E2;-7,175993919E-1;2,413587570E-1;1,199332833E0
1,762245684E2;-1,172559261E0;-2,346134186E-1;6,158380508E-1
1,763245684E2;9,660720825E-3;-9,818220139E-1;2,439415455E-1
1,764245684E2;-1,280603409E-1;-1,532096863E-1;9,248404503E-1
1,765245684E2;-1,332120895E-1;-9,452986717E-1;5,353841782E-1
1,766245684E2;1,512699127E-1;-9,353656769E-1;1,802957058E-1
1,767245684E2;8,714962006E-2;-2,603464127E-1;-5,351746082E-1
1,768245684E2;1,216143608E0;-1,225004673E0;6,533908844E-1
1,769245684E2;1,216143608E0;-1,225004673E0;6,533908844E-1
1,770245684E2;1,216143608E0;-1,225004673E0;6,533908844E-1
1,771245684E2;1,216143608E0;-1,225004673E0;6,533908844E-1
1,772245684E2;4,589999676E0;-3,689760208E0;-1,691086173E0
1,773245684E2;4,589999676E0;-3,689760208E0;-1,691086173E0
1,774245684E2;4,589999676E0;-3,689760208E0;-1,691086173E0
1,775245684E2;1,285867691E0;-2,982772350E0;-2,131872177E-1
1,776245684E2;-8,516864777E-1;-2,394973278E0;2,220747471E-1
1,777245684E2;-8,516864777E-1;-2,394973278E0;2,220747471E-1
1,778245684E2;-8,516864777E-1;-2,394973278E0;2,220747471E-1
1,779245684E2;2,055071354E0;-1,709764481E0;-1,573113441E0
1,780245684E2;2,055071354E0;-1,709764481E0;-1,573113441E0
1,781245684E2;2,055071354E0;-1,709764481E0;-1,573113441E0
1,782245684E2;2,831239700E-1;-2,731054306E0;-3,711111546E-1
1,783245684E2;1,307741165E0;-2,385288715E0;-5,340909958E-2
1,784245684E2;1,307741165E0;-2,385288715E0;-5,340909958E-2
1,785245684E2;-5,563266754E0;-1,704015732E-1;1,317071676E0
1,786245684E2;-3,026189327E0;3,173879862E0;-8,412975073E-1
1,787245684E2;3,143692017E-2;-1,751601219E0;-2,164135933E0
1,788245684E2;4,945446491E0;-2,128607750E0;-2,166948318E0
1,789245684E2;3,547008514E0;9,204282761E-1;-1,408752441E0
1,790245684E2;-8,360543251E-1;-2,554440022E0;-2,172061443E0
1,791245684E2;4,699773788E-1;-2,468218327E0;-1,987993121E0
1,792245684E2;-4,526572227E0;1,301608086E-1;1,872550607E0
1,793245684E2;-4,266490936E0;1,955962181E0;2,828487873E0
1,794245684E2;-2,541685104E-2;1,682354927E0;-1,414784789E0
1,795245684E2;2,201922417E0;4,348945618E-2;1,427549124E-1
1,796245684E2;2,201922417E0;4,348945618E-2;1,427549124E-1
1,797245684E2;2,201922417E0;4,348945618E-2;1,427549124E-1
1,798245684E2;2,201922417E0;4,348945618E-2;1,427549124E-1
1,799245684E2;2,201922417E0;4,348945618E-2;1,427549124E-1
1,800245684E2;2,201922417E0;4,348945618E-2;1,427549124E-1
1,801245684E2;2,201922417E0;4,348945618E-2;1,427549124E-1
1,802245684E2;2,201922417E0;4,348945618E-2;1,427549124E-1
1,803245684E2;2,201922417E0;4,348945618E-2;1,427549124E-1
1,804245684E2;2,201922417E0;4,348945618E-2;1,427549124E-1
1,805245684E2;2,201922417E0;4,348945618E-2;1,427549124E-1
1,806245684E2;2,201922417E0;4,348945618E-2;1,427549124E-1
1,807245684E2;2,201922417E0;4,348945618E-2;1,427549124E-1
1,808245684E2;2,201922417E0;4,348945618E-2;1,427549124E-1
1,809245684E2;2,201922417E0;4,348945618E-2;1,427549124E-1
1,810245684E2;5,176219463E0;-1,005973816E-1;-8,726167679E-1
1,811245684E2;5,176219463E0;-1,005973816E-1;-8,726167679E-1
1,812245684E2;5,176219463E0;-1,005973816E-1;-8,726167679E-1
1,813245684E2;3,692679405E0;-4,287862778E-1;-2,465911388E0
1,814245684E2;3,799548149E-1;-1,180881500E0;-1,870945811E0
1,815245684E2;3,799548149E-1;-1,180881500E0;-1,870945811E0
1,816245684E2;3,799548149E-1;-1,180881500E0;-1,870945811E0
1,817245684E2;-2,188195705E0;-3,791454315E0;-6,206376553E-1
1,818245684E2;-5,134631157E0;4,165188789E0;2,811544180E0
1,819245684E2;-5,134631157E0;4,165188789E0;2,811544180E0
1,820245684E2;-5,134631157E0;4,165188789E0;2,811544180E0
1,821245684E2;3,982085228E0;-7,587184906E-1;-3,647936583E0
1,822245684E2;3,982085228E0;-7,587184906E-1;-3,647936583E0
1,823245684E2;3,982085228E0;-7,587184906E-1;-3,647936583E0
1,824245684E2;-1,742384911E0;-2,165277958E0;-1,616719723E0
1,825245684E2;1,185302734E0;-1,664485455E0;1,045546532E-1
1,826245684E2;6,587400436E-1;-4,221562386E0;1,677114606E0
1,827245684E2;-6,570416451E0;-1,160840988E-1;-8,788640499E-1
1,828245684E2;1,163243294E0;1,491847277E0;1,286121368E0
1,829245684E2;1,703422070E0;3,559788465E0;1,023974776E0
1,830245684E2;-7,999324799E-1;-3,302775383E0;5,188332796E-1
1,831245684E2;5,238294125E0;-7,220811844E-1;-1,461134434E0
1,832245684E2;1,406362057E0;1,620597839E-1;-6,807231903E-2
1,833245684E2;7,371797562E-1;-8,931932449E-1;1,622806191E0
1,834245684E2;1,268939018E0;-1,951077461E0;-6,525822878E-1
1,835245684E2;-1,157233238E0;9,250783920E-2;6,497915983E-1
1,836245684E2;-1,839744091E0;9,397792816E-2;5,920338631E-2
1,837245684E2;-4,561934471E0;-3,082675934E-1;1,318455696E0
1,838245684E2;-2,450654507E0;2,022303104E0;-4,954504967E-2
1,839245684E2;5,915546417E-2;5,491218567E-1;-1,143176317E0
1,840245684E2;4,000938892E0;-1,984710693E0;-9,310197830E-2
1,841245684E2;3,180271149E0;-4,412746429E-1;-1,273139715E0
1,842245684E2;-6,529126167E-1;3,713817596E-1;3,503715992E-1
1,843245684E2;-5,351676941E-1;-1,413474083E0;-7,252737284E-1
1,844245684E2;7,934570312E-1;-2,949599266E0;-9,215025902E-1
1,845245684E2;7,934570312E-1;-2,949599266E0;-9,215025902E-1
1,846245684E2;7,934570312E-1;-2,949599266E0;-9,215025902E-1
1,847245684E2;7,934570312E-1;-2,949599266E0;-9,215025902E-1
1,848245684E2;7,934570312E-1;-2,949599266E0;-9,215025902E-1
1,849245684E2;7,934570312E-1;-2,949599266E0;-9,215025902E-1
1,850245684E2;7,934570312E-1;-2,949599266E0;-9,215025902E-1
1,851245684E2;7,934570312E-1;-2,949599266E0;-9,215025902E-1
1,852245684E2;7,934570312E-1;-2,949599266E0;-9,215025902E-1
1,853245684E2;7,934570312E-1;-2,949599266E0;-9,215025902E-1
1,854245684E2;7,934570312E-1;-2,949599266E0;-9,215025902E-1
1,855245684E2;7,934570312E-1;-2,949599266E0;-9,215025902E-1
1,856245684E2;7,934570312E-1;-2,949599266E0;-9,215025902E-1
1,857245684E2;7,934570312E-1;-2,949599266E0;-9,215025902E-1
1,858245684E2;7,934570312E-1;-2,949599266E0;-9,215025902E-1
1,859245684E2;7,934570312E-1;-2,949599266E0;-9,215025902E-1
1,860245684E2;7,934570312E-1;-2,949599266E0;-9,215025902E-1
1,861245684E2;7,934570312E-1;-2,949599266E0;-9,215025902E-1
1,862245684E2;7,934570312E-1;-2,949599266E0;-9,215025902E-1
1,863245684E2;7,934570312E-1;-2,949599266E0;-9,215025902E-1
1,864245684E2;-7,426989555E0;2,388062954E0;1,673866510E0
1,865245684E2;-7,426989555E0;2,388062954E0;1,673866510E0
1,866245684E2;-7,426989555E0;2,388062954E0;1,673866510E0
1,867245684E2;-7,426989555E0;2,388062954E0;1,673866510E0
1,868245684E2;5,978139877E0;-1,387402534E0;-2,789420128E0
1,869245684E2;5,978139877E0;-1,387402534E0;-2,789420128E0
1,870245684E2;1,702685356E-1;1,642238140E0;1,143567324E0
1,871245684E2;1,946068764E0;-2,253958225E0;1,751652956E0
1,872245684E2;-2,922884464E0;1,046186447E0;-4,997544289E-1
1,873245684E2;-3,402500153E-1;6,548550606E0;-1,078289509E0
1,874245684E2;-2,694699764E0;1,984144449E0;2,433686972E0
1,875245684E2;2,988751411E0;-2,579976559E0;-7,296109200E-2
1,876245684E2;1,510558605E0;2,518682480E0;9,792128801E-1
1,877245684E2;6,740217209E-1;1,985829353E0;8,412964344E-1
1,878245684E2;-2,513074875E-2;-6,652097702E-1;-1,937748551E0
1,879245684E2;1,711972237E0;-3,029489517E-1;2,523922920E-2
1,880245684E2;-3,101971149E0;-6,193542480E-2;1,170656681E0
1,881245684E2;-6,604614258E-1;-5,958771229E0;4,946112633E-2
1,882245684E2;-7,741921425E0;1,022770405E0;1,473137379E0
1,883245684E2;-2,996500969E0;2,340425014E0;1,633638382E0
1,884245684E2;3,522491455E-2;-1,871579647E0;-1,061105728E0
1,885245684E2;4,843398571E0;-4,509054184E0;-1,923714876E0
1,886245684E2;1,390577555E0;2,631575584E0;1,334578395E0
1,887245684E2;-5,417385101E-1;-5,057640076E-1;-9,614156485E-1
1,888245684E2;2,806427002E0;-2,993890285E0;-7,025367022E-1
1,889245684E2;-2,018316269E0;-2,314925194E-1;5,932207108E-1
1,890245684E2;9,519381523E-1;-1,982634544E0;4,836261272E-1
1,891245684E2;-3,331962585E0;-7,095923424E-1;2,376546860E-1
1,892245684E2;7,610731125E-1;-3,985710144E-1;-6,227562428E-1
1,893245684E2;5,740370750E-1;-2,537642956E0;8,695192337E-1
1,894245684E2;3,567527294E0;1,928788185E0;4,283386469E-1
1,895245684E2;3,972327709E0;-4,496335030E0;-1,200701833E0
1,896245684E2;5,500550270E-1;2,509135246E0;-2,181460619E0
1,897245684E2;1,630137682E0;2,990215302E0;-8,050571680E-1
1,898245684E2;5,067572594E-1;-1,412408829E0;1,264853954E0
1,899245684E2;1,022896290E0;-1,762941837E0;4,949045181E-1
1,900245684E2;-1,661412239E0;-3,808112144E0;3,181300879E0
1,901245684E2;-3,033077717E0;-2,841412544E0;1,395301104E0
1,902245684E2;-5,136559486E0;-2,451634407E-1;-3,830261230E-1
1,903245684E2;4,134267330E0;2,649522066E0;3,599353075E0
1,904245684E2;-1,752032757E0;-2,525404930E0;-7,449653149E-1
1,905245684E2;3,193866253E0;9,148435593E-1;-2,071463108E0
1,906245684E2;1,263356447E0;3,434047699E-1;-1,981058478E0
1,907245684E2;1,446051598E-1;-1,461710930E0;2,229766130E0
1,908245684E2;-3,483324051E-1;-8,860816956E-1;-1,279929638E0
1,909245684E2;1,052479744E0;-5,409564972E-1;-6,514375210E-1
1,910245684E2;-2,826951981E0;1,007247686E0;4,729049683E0
1,911245684E2;-9,677530289E0;5,661587715E0;2,301947832E0
1,912245684E2;5,470395088E-1;-1,109097004E0;-1,722862005E0
1,913245684E2;-1,633958340E0;-2,720388889E0;2,491989613E0
1,914245684E2;7,338525295E0;-4,811096191E0;-5,905695915E0
1,915245684E2;3,721051216E0;-6,535202026E0;1,352459669E0
1,916245684E2;-2,115228176E-1;1,276627541E0;-4,885789871E0
1,917245684E2;3,564712524E0;-6,623081207E0;-6,774907112E0
1,918245684E2;-2,868643522E0;-1,826013088E0;-2,165830612E0
1,919245684E2;4,429712772E0;-5,237740517E0;1,223615885E0
1,920245684E2;4,429712772E0;-5,237740517E0;1,223615885E0
1,921245684E2;4,429712772E0;-5,237740517E0;1,223615885E0
1,922245684E2;4,429712772E0;-5,237740517E0;1,223615885E0
1,923245684E2;4,429712772E0;-5,237740517E0;1,223615885E0
1,924245684E2;4,429712772E0;-5,237740517E0;1,223615885E0
1,925245684E2;4,429712772E0;-5,237740517E0;1,223615885E0
1,926245684E2;4,429712772E0;-5,237740517E0;1,223615885E0
1,927245684E2;4,429712772E0;-5,237740517E0;1,223615885E0
1,928245684E2;4,429712772E0;-5,237740517E0;1,223615885E0
1,929245684E2;4,429712772E0;-5,237740517E0;1,223615885E0
1,930245684E2;4,429712772E0;-5,237740517E0;1,223615885E0
1,931245684E2;4,429712772E0;-5,237740517E0;1,223615885E0
1,932245684E2;4,429712772E0;-5,237740517E0;1,223615885E0
1,933245684E2;4,429712772E0;-5,237740517E0;1,223615885E0
1,934245684E2;4,429712772E0;-5,237740517E0;1,223615885E0
1,935245684E2;4,429712772E0;-5,237740517E0;1,223615885E0
1,936245684E2;4,429712772E0;-5,237740517E0;1,223615885E0
1,937245684E2;4,429712772E0;-5,237740517E0;1,223615885E0
1,938245684E2;4,429712772E0;-5,237740517E0;1,223615885E0
1,939245684E2;4,429712772E0;-5,237740517E0;1,223615885E0
1,940245684E2;4,429712772E0;-5,237740517E0;1,223615885E0
1,941245684E2;4,429712772E0;-5,237740517E0;1,223615885E0
1,942245684E2;4,429712772E0;-5,237740517E0;1,223615885E0
1,943245684E2;2,906889200E0;2,670959949E0;2,839071274E0
1,944245684E2;2,906889200E0;2,670959949E0;2,839071274E0
1,945245684E2;-1,955298901E0;-2,781160831E0;-2,091844559E0
1,946245684E2;8,321590424E-1;-1,715065479E0;-1,465016007E0
1,947245684E2;-4,822521210E-1;-2,816983700E0;2,265596390E-2
1,948245684E2;-4,353448868E0;1,299929380E0;-5,686020851E-2
1,949245684E2;-1,428062916E0;2,291043520E0;1,368874669E0
1,950245684E2;-2,390406609E0;-7,209205627E-2;-2,498107195E0
1,951245684E2;4,330280304E0;4,628868103E-1;-4,114795923E-1
1,952245684E2;9,845380783E-1;8,868198395E-1;4,825488567E0
1,953245684E2;-2,309839249E0;5,795675278E0;2,717961311E0
1,954245684E2;-2,296477556E0;-2,090208054E0;5,208541870E0
1,955245684E2;-2,496641159E0;5,227994919E-2;-1,293528914E0
1,956245684E2;-4,012221813E0;-1,929979801E0;-3,016211987E-1
1,957245684E2;-2,116054535E0;-1,128705502E0;-1,831384182E0
1,958245684E2;-4,205676556E0;4,867064953E0;4,385243416E0
1,959245684E2;-2,680393696E0;-2,798051834E-1;2,121816397E0
1,960245684E2;-4,650139809E-1;-2,336972713E0;1,134054422E0
1,961245684E2;4,069929123E0;-2,947542191E0;-2,467666864E0
1,962245684E2;6,593503952E-1;4,993686676E-1;-1,253712058E0
1,963245684E2;9,655475616E-3;-4,359731674E-1;3,710343361E0
1,964245684E2;-5,326094627E-1;-3,402531624E0;-1,081096172E0
1,965245684E2;-3,507609367E0;-8,352890015E-1;7,875694036E-1
1,966245684E2;1,359285355E0;-2,866401196E0;-2,619339228E-1
1,967245684E2;3,496327877E0;-1,854601860E0;-4,583191872E-2
1,968245684E2;3,553743362E-1;1,408273458E0;3,242826700E0
1,969245684E2;-8,165762901E0;7,644036293E0;2,258147717E0
1,970245684E2;-9,141540527E-2;2,540421486E-1;1,941785574E0
1,971245684E2;-3,445801735E-1;-1,629298687E0;1,005746603E0
1,972245684E2;2,246421814E0;4,115294933E0;-3,980650902E-1
1,973245684E2;2,749156713E0;5,771646500E-1;-8,226922750E-1
1,974245684E2;-6,123513222E0;3,504083633E0;1,482444406E0
1,975245684E2;2,616033554E-1;-6,160030365E-1;-1,516260743E0
1,976245684E2;4,844296455E0;-1,564923763E0;-2,705655098E-1
1,977245684E2;5,535464287E-1;-4,216020107E0;7,295718193E-1
1,978245684E2;-3,605398655E0;-5,297828674E0;-1,072846174E0
1,979245684E2;-2,121119499E-1;2,239794493E0;1,830610752E0
1,980245684E2;-7,118276119E0;3,750911951E0;-1,739469290E0
1,981245684E2;2,314023972E0;-2,529278755E0;-2,841558456E-1
1,982245684E2;1,366913319E0;-4,015960693E-1;1,286295652E0
1,983245684E2;7,398321152E0;-4,809986115E0;9,306191206E-1
1,984245684E2;4,299872398E0;1,291171551E0;-1,931515574E0
1,985245684E2;-1,201031685E0;-1,718870163E0;5,992385387E0
1,986245684E2;1,116326809E0;1,137277126E0;2,155361652E0
1,987245684E2;9,685688019E-1;-2,565764427E0;2,063900471E0
1,988245684E2;-6,766896248E-1;2,686996460E-1;1,094506979E0
1,989245684E2;-1,558887482E0;-2,039656162E0;5,482242584E0
1,990245684E2;-3,039255142E-1;-4,433145523E-1;-1,308856010E0
1,991245684E2;-3,658357143E0;3,545569420E0;3,851195812E0
1,992245684E2;5,357918739E-1;4,131290913E0;-1,535769582E0
1,993245684E2;1,442947149E0;-2,626122475E0;2,271799088E0
1,994245684E2;1,442947149E0;-2,626122475E0;2,271799088E0
1,995245684E2;1,442947149E0;-2,626122475E0;2,271799088E0
1,996245684E2;1,442947149E0;-2,626122475E0;2,271799088E0
1,997245684E2;1,442947149E0;-2,626122475E0;2,271799088E0
1,998245684E2;1,442947149E0;-2,626122475E0;2,271799088E0
1,999245684E2;1,442947149E0;-2,626122475E0;2,271799088E0
2,000245684E2;1,442947149E0;-2,626122475E0;2,271799088E0
2,001245684E2;1,442947149E0;-2,626122475E0;2,271799088E0
2,002245684E2;1,442947149E0;-2,626122475E0;2,271799088E0
2,003245684E2;1,442947149E0;-2,626122475E0;2,271799088E0
2,004245684E2;1,442947149E0;-2,626122475E0;2,271799088E0
2,005245684E2;1,442947149E0;-2,626122475E0;2,271799088E0
2,006245684E2;1,442947149E0;-2,626122475E0;2,271799088E0
2,007245684E2;1,442947149E0;-2,626122475E0;2,271799088E0
2,008245684E2;1,442947149E0;-2,626122475E0;2,271799088E0
2,009245684E2;1,442947149E0;-2,626122475E0;2,271799088E0
2,010245684E2;1,442947149E0;-2,626122475E0;2,271799088E0
2,011245684E2;1,442947149E0;-2,626122475E0;2,271799088E0
2,012245684E2;1,442947149E0;-2,626122475E0;2,271799088E0
2,013245684E2;1,442947149E0;-2,626122475E0;2,271799088E0
2,014245684E2;1,442947149E0;-2,626122475E0;2,271799088E0
2,015245684E2;-9,450541496E0;8,430409431E-1;3,697321892E0
2,016245684E2;-9,450541496E0;8,430409431E-1;3,697321892E0
2,017245684E2;5,991038322E0;-6,013889313E-1;5,641368389E0
2,018245684E2;3,797436476E0;1,029908657E0;-7,071178436E0
2,019245684E2;2,218044281E0;-3,422800064E0;-5,435928345E0
2,020245684E2;1,724394798E0;-6,338933468E0;-2,634379864E-1
2,021245684E2;-2,927253246E0;-2,627871513E0;1,642915845E0
2,022245684E2;-4,779798508E0;-3,668024063E0;7,110288143E-1
2,023245684E2;-7,560462952E0;5,318851471E-1;4,815651417E0
2,024245684E2;1,145218849E0;4,216151237E-1;-4,672725677E0
2,025245684E2;4,424463749E0;-3,692855835E-1;-5,979071140E0
2,026245684E2;2,668449640E0;6,977039337E0;1,441884756E0
2,027245684E2;-1,143913269E-1;-1,771252632E0;1,285142541E0
2,028245684E2;3,985886574E-1;-1,733188629E-1;-3,416788101E0
2,029245684E2;4,647658348E0;-6,661765099E0;1,169064760E0
2,030245684E2;-4,866075516E0;3,665480137E0;4,929885387E0
2,031245684E2;-5,543479919E-1;-1,022945404E1;2,497661114E-1
2,032245684E2;-4,852383137E0;2,315537214E0;4,367542267E0
2,033245684E2;-1,630112648E0;1,816445351E0;-5,230345726E-1
2,034245684E2;8,159279823E0;-1,095672798E1;-1,479815960E0
2,035245684E2;-2,147361517E0;-9,788913727E-1;-1,244404316E-1
2,036245684E2;-5,154955387E0;3,244099617E-1;3,480310440E0
2,037245684E2;5,293535233E0;-3,369274139E0;3,540337563E0
