"Time (s)";"Acceleration x (m/s^2)";"Acceleration y (m/s^2)";"Acceleration z (m/s^2)"
6,340386900E-2;-4,173082829E0;2,923431158E0;9,163912773E0
1,291845200E-1;-3,189034462E0;4,677968502E0;9,240483284E0
2,291845200E-1;-2,060818434E0;3,346362352E0;9,780064583E0
3,291845200E-1;-1,409372568E0;2,886940479E0;8,819346428E0
4,291845200E-1;-5,431707501E-1;2,588435888E0;9,230911255E0
5,291845200E-1;-9,326026440E-1;1,261615753E0;8,864809990E0
6,291845200E-1;3,373879790E-1;7,441678643E-1;6,102894306E0
7,291845200E-1;8,853443712E-2;6,586244106E-1;6,773482800E0
8,291845200E-1;9,098708034E-1;-2,209173441E0;8,109275818E0
9,291845200E-1;5,160720348E0;-8,622536659E0;1,044945621E1
1,029184520E0;6,830910206E0;-1,011027431E1;9,169894218E0
1,129184520E0;1,417448330E1;-5,935396671E0;4,987240791E0
1,229184520E0;8,467600822E0;-8,659027100E0;3,802793503E0
1,329184520E0;1,510469317E0;-8,231309891E0;8,275577545E0
1,429184520E0;1,591227055E0;-8,801998138E0;7,586444378E0
1,529184520E0;2,973680258E0;-1,066959572E1;4,452444553E0
1,629184520E0;2,075175524E0;-7,740182877E0;6,238687038E0
1,729184520E0;-1,095912814E0;-7,596613884E0;-3,918247223E-1
1,829184520E0;3,470191002E0;-9,157930374E0;6,648457527E0
1,929184520E0;4,127020836E0;-5,408377171E0;-1,758724689E0
2,029184520E0;9,921240807E0;-6,726224422E0;4,607379913E0
2,129184520E0;5,506483078E0;-7,344171047E0;2,938386202E0
2,229184520E0;6,597012043E0;-6,406782627E0;6,251847267E0
2,329184520E0;6,413960934E0;-5,327021599E0;6,211169243E0
2,429184520E0;1,065882874E1;-1,359123230E0;9,236295223E-1
2,529184520E0;1,067318535E1;-7,048058987E0;9,145368576E0
2,629184520E0;5,549553871E0;-4,329214573E0;8,513064384E0
2,729184520E0;4,002593994E0;-3,863212109E0;5,241477966E0
2,829184520E0;3,327818155E0;-5,264210105E-1;4,503292084E0
2,929184520E0;2,182852507E0;-3,726821244E-1;7,770691395E0
3,029184520E0;-1,567897081E0;-3,061616659E0;5,658427238E0
3,129184520E0;-1,432702541E0;-1,145743275E1;7,244270325E0
3,229184520E0;4,335794449E0;-1,230927753E1;5,443671703E0
3,329184520E0;7,360920429E0;-1,036750221E1;6,999006271E-1
3,429184520E0;1,630947876E1;-4,058825493E0;8,201997757E0
3,529184520E0;9,440881729E0;-6,987640381E0;5,449653625E0
3,629184520E0;3,037688255E0;-6,105287075E0;-1,028315544E0
3,729184520E0;-4,857429862E-1;-1,274776268E1;1,838286042E0
3,829184520E0;5,155336380E0;-8,319246292E0;5,255835056E0
3,929184520E0;5,062614441E0;-9,645467758E0;4,013959885E0
4,029184520E0;4,223331928E0;-8,146963120E0;3,944568157E0
4,129184520E0;3,554538012E0;-1,652244091E0;8,895317912E-1
4,229184520E0;3,403790236E0;-9,410373688E0;5,854638577E0
4,329184520E0;3,729214191E0;-5,818148136E0;1,417149186E0
4,429184520E0;1,390289783E1;-1,248515034E1;6,281159073E-2
4,529184520E0;1,145264721E1;-2,285145521E0;5,700899959E-1
4,629184520E0;2,420340061E0;-9,673583984E0;4,520041943E0
4,729184520E0;9,500701904E0;-6,117250919E0;1,262213886E-1
4,829184520E0;6,244070530E0;-5,711667538E0;-4,899304509E-1
4,929184520E0;3,742972851E0;-7,411767960E0;1,532602906E0
5,029184520E0;-1,723430514E0;-4,850849628E0;2,129014015E0
5,129184520E0;-6,538388133E-1;-1,193599796E1;2,506481707E-1
5,229184520E0;-8,021938205E-1;-9,754341125E0;1,928016901E0
5,329184520E0;-1,777867198E0;-9,936196327E0;1,325025558E0
5,429184520E0;-2,825325251E0;-1,140000534E1;2,329412937E0
5,529184520E0;2,340778828E0;-1,321615791E1;-3,594617844E0
5,629184520E0;-2,256431818E0;-8,855836868E0;-3,270390272E0
5,729184520E0;-4,609772682E0;-1,141077328E1;-3,745963812E0
5,829184520E0;-5,873781204E0;-9,225527763E0;-2,786442041E0
5,929184520E0;-3,903890133E0;-2,106282234E0;-5,908477306E0
6,029184520E0;-4,641477585E0;-6,400800347E-1;-5,312664509E0
6,129184520E0;-4,049852371E0;9,786644578E-1;-5,140381336E0
6,229184520E0;-3,516851187E0;-4,325026870E-1;-6,882356167E0
6,329184520E0;-4,407579422E0;-3,929612875E0;-7,475177765E0
6,429184520E0;-2,378465652E0;-5,654240131E0;-9,231510162E0
6,529184520E0;-3,084946632E0;-5,714658737E0;-9,385847092E0
6,629184520E0;-2,699103832E0;-5,250451088E0;-7,074978352E0
6,729184520E0;-1,293918848E0;-6,209972858E0;-1,015095139E1
6,829184520E0;-8,739784956E-1;-5,742176056E0;-8,117650986E0
6,929184520E0;1,077368379E0;-2,965903759E0;-7,239484787E0
7,029184520E0;1,831705689E0;-3,729812384E0;-9,028120041E0
7,129184520E0;2,205584288E0;-2,690729141E0;-6,799205780E0
7,229184520E0;4,147359848E0;-1,014556766E0;-7,414160728E0
7,329184520E0;3,576671600E0;-4,487140656E0;-8,008178711E0
7,429184520E0;4,278964996E0;-5,029115200E0;-8,331210136E0
7,529184520E0;3,979862213E0;-3,426522017E0;-6,795616150E0
7,629184520E0;4,098905087E0;-6,434898376E0;-7,018746853E0
7,729184520E0;4,801198483E0;-7,170093060E0;-7,220940590E0
7,829184520E0;2,257030010E0;-6,366104603E0;-3,034099102E0
7,929184520E0;1,454836130E0;-1,070309544E1;-3,984049797E0
8,029184520E0;1,603789330E0;-8,328219414E0;-3,969692707E0
8,129184520E0;2,882154942E0;-8,545368195E0;-2,996412039E0
8,229184520E0;3,680759430E0;-8,073982239E0;-4,993820667E0
8,329184520E0;4,735994339E0;-7,956733704E0;-4,426123619E0
8,429184520E0;5,694319725E0;-5,856433392E0;-6,518647194E0
8,529184520E0;6,963113785E0;-5,453841209E0;-7,695915699E0
8,629184520E0;2,734398127E0;-6,551548481E0;-5,665007591E0
8,729184520E0;1,455434322E0;-5,018347263E0;-5,405386448E0
8,829184520E0;3,738187075E0;-2,441875458E0;-7,454240799E0
8,929184520E0;4,742574692E0;-3,019144058E0;-6,293123722E0
9,029184520E0;4,981856823E0;-6,649055958E0;-6,276373863E0
9,129184520E0;4,156930923E0;-7,462615490E0;-6,384648800E0
9,229184520E0;4,546362877E0;-8,815158844E0;-4,838885784E0
9,329184520E0;3,191427231E0;-9,422337532E0;-5,341378212E0
9,429184520E0;2,819941521E0;-8,901898384E0;-4,228715897E0
9,529184520E0;5,728417397E0;-1,077308559E1;-5,368297577E0
9,629184520E0;4,369892120E0;-6,661019802E0;-4,293322086E0
9,729184520E0;4,244867325E0;-6,611967087E0;-5,304289818E0
9,829184520E0;4,564907551E0;-7,170093060E0;-7,333403111E0
9,929184520E0;3,501895905E0;-3,130410194E0;-4,871787071E0
1,002918452E1;2,638685226E0;-2,515454769E0;-6,285944939E0
1,012918452E1;5,155934811E0;-6,610172749E0;-6,145965099E0
1,022918452E1;5,110470772E0;-8,365905762E0;-6,458826542E0
1,032918452E1;3,832703590E0;-1,053739262E1;-5,140979290E0
1,042918452E1;4,009772778E0;-1,102672482E1;-6,720242500E0
1,052918452E1;3,656233072E0;-8,224131584E0;-4,578666210E0
1,062918452E1;5,922834396E0;-1,066361427E1;-5,215157032E0
1,072918452E1;4,654638290E0;-7,473383427E0;-4,464408875E0
1,082918452E1;3,625724554E0;-5,873781204E0;-5,447260857E0
1,092918452E1;2,648854733E0;-2,694318295E0;-6,107081413E0
1,102918452E1;2,923431158E0;-2,361117840E0;-5,853442192E0
1,112918452E1;4,245465755E0;-5,720042706E0;-4,743172646E0
1,122918452E1;4,235894203E0;-9,743574142E0;-5,630909920E0
1,132918452E1;4,590032101E0;-9,891330719E0;-5,545366287E0
1,142918452E1;2,575873613E0;-9,535398483E0;-4,598406792E0
1,152918452E1;3,733401537E0;-9,565906525E0;-5,160121918E0
1,162918452E1;5,506483078E0;-8,519046783E0;-6,223731518E0
1,172918452E1;4,702494621E0;-6,217749596E0;-7,498507977E0
1,182918452E1;2,585444927E0;-4,155734539E0;-5,419145107E0
1,192918452E1;1,697109461E0;-2,207378894E-1;-4,554738045E0
1,202918452E1;4,426123619E0;-4,742574692E0;-5,734997749E0
1,212918452E1;4,204787731E0;-6,565905571E0;-5,221737385E0
1,222918452E1;3,996612072E0;-1,031186962E1;-5,471786976E0
1,232918452E1;6,642475605E0;-1,230389404E1;-6,417550564E0
1,242918452E1;4,574478626E0;-9,366703987E0;-5,175076962E0
1,252918452E1;4,506881237E0;-8,678768158E0;-4,466203690E0
1,262918452E1;4,454837322E0;-5,838487148E0;-5,723631859E0
1,272918452E1;2,536391973E0;-2,956332445E0;-4,402195454E0
1,282918452E1;2,488535643E0;-2,800200701E0;-4,137190342E0
1,292918452E1;2,494517565E0;-4,368097782E0;-3,688536167E0
1,302918452E1;5,533402443E0;-1,102911758E1;-6,156732559E0
1,312918452E1;5,597410202E0;-1,203410339E1;-5,679364681E0
1,322918452E1;3,604787350E0;-1,100160027E1;-6,201598167E0
1,332918452E1;4,383651257E0;-9,324232101E0;-4,933402061E0
1,342918452E1;4,198805332E0;-6,227919102E0;-4,813162804E0
1,352918452E1;4,206582069E0;-5,816353798E0;-5,785845280E0
1,362918452E1;1,040877819E0;-2,068595171E0;-4,804189682E0
1,372918452E1;1,222134113E0;2,189432681E-1;-3,470789194E0
1,382918452E1;4,596014023E0;-8,103293419E0;-4,866403103E0
1,392918452E1;5,757729530E0;-1,340758324E1;-7,517650604E0
1,402918452E1;3,808177233E0;-8,762516975E0;-5,337191105E0
1,412918452E1;3,668795347E0;-9,653244972E0;-5,047060966E0
1,422918452E1;6,957131863E0;-1,111825085E1;-5,053043365E0
1,432918452E1;2,624926329E0;-4,022335052E0;-3,009572744E0
1,442918452E1;3,163311481E0;-3,206382275E0;-5,757131100E0
1,452918452E1;2,259422779E0;-1,847259045E0;-6,905686378E0
1,462918452E1;4,902295589E0;-5,068596363E0;-4,820939541E0
1,472918452E1;3,857230186E0;-8,390432358E0;-4,346562386E0
1,482918452E1;3,878167391E0;-1,096630573E1;-5,462814331E0
1,492918452E1;4,264608383E0;-9,273982048E0;-5,970690727E0
1,502918452E1;4,131208420E0;-9,626325607E0;-4,179663181E0
1,512918452E1;4,418945312E0;-6,861418724E0;-5,401797295E0
1,522918452E1;4,426123619E0;-4,975276470E0;-5,807978630E0
1,532918452E1;8,111668825E-1;-2,858824968E0;-3,990629911E0
1,542918452E1;1,488933921E0;-2,883351147E-1;-4,073182583E0
1,552918452E1;3,905684710E0;-5,693123341E0;-7,038487911E0
1,562918452E1;4,368097782E0;-6,823731899E0;-4,222135544E0
1,572918452E1;5,245665550E0;-1,125105190E1;-5,634499073E0
1,582918452E1;4,861617565E0;-1,210349560E1;-6,004788399E0
1,592918452E1;2,827120066E0;-7,764709473E0;-2,704487801E0
1,602918452E1;6,145965099E0;-7,944170952E0;-6,138786316E0
1,612918452E1;5,125426292E0;-7,503293514E0;-5,176273346E0
1,622918452E1;1,974676847E0;-5,846263885E0;-5,589633465E0
1,632918452E1;3,768695593E-1;2,201396823E-1;-4,429114819E0
1,642918452E1;5,330012321E0;-3,273381472E0;-5,697310925E0
1,652918452E1;3,982853174E0;-8,079365730E0;-5,284548759E0
1,662918452E1;3,832105398E0;-1,043330479E1;-4,733003139E0
1,672918452E1;5,922235966E0;-1,257547951E1;-6,855436802E0
1,682918452E1;3,265604734E0;-9,064012527E0;-4,809573650E0
1,692918452E1;4,437489510E0;-1,092562866E1;-5,492724419E0
1,702918452E1;5,492125988E0;-8,852247238E0;-6,294918060E0
1,712918452E1;1,767099500E0;-1,852044702E0;-3,970889091E0
1,722918452E1;8,451449394E0;-6,438487530E0;-9,038289070E0
1,732918452E1;2,118844509E0;-1,862812400E0;-4,535595417E0
1,742918452E1;2,478366137E0;-3,058625460E0;-2,809173822E0
1,752918452E1;3,903291941E0;-4,815555573E0;-5,771488190E0
1,762918452E1;4,474578381E0;-8,881559372E0;-4,779065132E0
1,772918452E1;5,230710506E0;-8,666205406E0;-5,716453075E0
1,782918452E1;5,911468506E0;-1,370070457E1;-8,218747139E0
1,792918452E1;3,362514019E0;-1,106501007E1;-5,325226784E0
1,802918452E1;5,060820103E0;-6,686742783E0;-4,147359848E0
1,812918452E1;2,230708838E0;-6,410371780E0;-4,077369690E0
1,822918452E1;5,492724419E0;-4,704289436E0;-6,212964058E0
1,832918452E1;6,857231617E0;-5,370092392E0;-8,461020470E0
1,842918452E1;2,203789711E0;-5,221138954E0;-6,453442574E0
1,852918452E1;1,660020709E0;-2,621337175E0;-4,031308174E0
1,862918452E1;7,013363361E0;-5,587240696E0;-5,876173973E0
1,872918452E1;8,816953659E0;-1,350688553E1;-7,369893551E0
1,882918452E1;3,179463148E0;-1,136411285E1;-3,369094372E0
1,892918452E1;3,528217077E0;-7,421937466E0;-2,337189436E0
1,902918452E1;4,548755646E0;-1,070668507E1;-4,289134502E0
1,912918452E1;6,315855503E0;-1,027358437E1;-5,335994720E0
1,922918452E1;1,635494232E0;-4,314857483E0;-3,102892876E0
1,932918452E1;4,616353035E0;-4,142574310E0;-7,000202656E0
1,942918452E1;2,306082726E0;-2,680559635E0;-5,123033047E0
1,952918452E1;2,251047850E0;-7,447660565E-1;-3,552145243E0
1,962918452E1;4,271188259E0;-5,336592674E0;-6,009573936E0
1,972918452E1;4,707878590E0;-1,040279675E1;-5,502295494E0
1,982918452E1;4,674977303E0;-1,229970646E1;-4,892724037E0
1,992918452E1;3,838087559E0;-9,940981865E0;-4,354339123E0
2,002918452E1;3,401397467E0;-8,796614647E0;-3,540181160E0
2,012918452E1;4,899902344E0;-8,614759445E0;-5,111069202E0
2,022918452E1;4,427918434E0;-6,183651924E0;-4,057030678E0
2,032918452E1;4,778466702E0;-5,519045353E0;-7,237092018E0
2,042918452E1;3,537788391E0;-2,475374937E0;-5,871388435E0
2,052918452E1;2,937189817E0;-3,847060680E0;-4,923830986E0
2,062918452E1;3,837489367E0;-7,306483746E0;-6,322435856E0
2,072918452E1;3,865006685E0;-7,709076405E0;-4,008575916E0
2,082918452E1;4,036093712E0;-1,162253761E1;-4,700700283E0
2,092918452E1;5,458626747E0;-1,106620693E1;-6,161518097E0
2,102918452E1;2,315055847E0;-9,964311600E0;-4,273581028E0
2,112918452E1;3,575475216E0;-6,940980434E0;-2,979064226E0
2,122918452E1;4,968696117E0;-6,588637352E0;-5,911468506E0
2,132918452E1;4,881956577E0;-5,152943611E0;-7,202396393E0
2,142918452E1;2,283949137E0;-1,716252089E0;-3,886542082E0
2,152918452E1;4,352544308E0;-3,387040377E0;-5,868995667E0
2,162918452E1;4,675575256E0;-7,348956585E0;-6,427719593E0
2,172918452E1;4,189234257E0;-7,917252064E0;-3,542573929E0
2,182918452E1;4,643870354E0;-1,307318687E1;-5,577669621E0
2,192918452E1;3,663411379E0;-8,991030693E0;-4,896911621E0
2,202918452E1;2,802593470E0;-8,626724243E0;-3,479164124E0
2,212918452E1;4,975874901E0;-7,858627796E0;-5,218147755E0
2,222918452E1;5,439484119E0;-6,897909641E0;-5,441876888E0
2,232918452E1;4,071985722E0;-4,770689964E0;-7,002595425E0
2,242918452E1;3,448655605E0;-9,044869542E-1;-4,271188259E0
2,252918452E1;4,449453831E0;-3,262613773E0;-6,076572895E0
2,262918452E1;4,089334011E0;-1,060199928E1;-5,647659779E0
2,272918452E1;2,308475733E0;-5,027918816E0;-2,650649309E0
2,282918452E1;3,992424488E0;-9,531808853E0;-4,802993298E0
2,292918452E1;1,884347796E0;-1,177328587E1;-4,049852371E0
2,302918452E1;1,779063582E0;-7,697112083E0;-2,636292458E0
2,312918452E1;6,759724021E-1;-7,822735310E0;-3,064009428E0
2,322918452E1;2,280359983E0;-9,843474388E0;-3,996013880E0
2,332918452E1;7,148557901E-1;-7,609176159E0;-1,686939955E0
2,342918452E1;1,009771109E0;-8,944371223E0;-2,018345833E0
2,352918452E1;1,261017561E0;-9,744770050E0;-1,303490162E0
2,362918452E1;3,978067636E-1;-1,104407310E1;-1,272981644E0
2,372918452E1;7,704889178E-1;-1,026640511E1;-1,292124271E0
2,382918452E1;-1,463211060E0;-7,959724426E0;-7,615157962E-1
2,392918452E1;-3,361915946E-1;-9,744172096E0;-1,304686546E0
2,402918452E1;7,740781307E-1;-9,182456970E0;-2,477169752E0
2,412918452E1;1,533799291E0;-8,234899521E0;-2,699702263E0
2,422918452E1;3,326023519E-1;-9,683753014E0;-2,124228239E0
2,432918452E1;1,135992527E0;-1,121635628E1;-3,595216036E0
2,442918452E1;4,588237405E-1;-7,954340458E0;-2,190629244E0
2,452918452E1;1,006780148E0;-9,418149948E0;-2,701496840E0
2,462918452E1;-4,462614357E-1;-1,070070267E1;-1,838286042E0
2,472918452E1;-8,991031051E-1;-9,675378799E0;-1,890928149E0
2,482918452E1;-1,908276081E-1;-1,006540871E1;-1,978864312E0
2,492918452E1;-2,392822690E-2;-9,424730301E0;-2,207378864E0
2,502918452E1;-3,218346536E-1;-9,470791817E0;-2,727817774E0
2,512918452E1;-1,916650891E0;-1,048953629E1;-3,303291559E0
2,522918452E1;-2,048854351E0;-9,788438797E0;-2,457428932E0
2,532918452E1;-9,403793216E-1;-8,504690170E0;-3,113660574E0
2,542918452E1;-1,751546144E0;-8,581858635E0;-3,653840065E0
2,552918452E1;-3,262613773E0;-9,227322578E0;-3,647858143E0
2,562918452E1;-2,221735716E0;-9,312267303E0;-3,741178274E0
2,572918452E1;-1,995015860E0;-8,056035995E0;-3,272783279E0
2,582918452E1;9,062815905E-1;-9,081359863E0;-4,464408875E0
2,592918452E1;1,476371527E0;-8,454441071E0;-4,264608383E0
2,602918452E1;1,507478207E-1;-9,103493690E0;-3,759722471E0
2,612918452E1;-2,667997181E-1;-9,949954987E0;-5,224130154E0
2,622918452E1;9,834501147E-1;-8,926424980E0;-4,624728203E0
2,632918452E1;3,332005441E-1;-8,868398666E0;-4,951946259E0
2,642918452E1;2,470589429E-1;-8,307282448E0;-4,804787636E0
2,652918452E1;-8,733802438E-1;-8,029116631E0;-4,772484779E0
2,662918452E1;-4,965107143E-2;-7,758129120E0;-4,834698200E0
2,672918452E1;-4,695914388E-1;-8,818149567E0;-5,063810825E0
2,682918452E1;-8,255237937E-1;-8,679964066E0;-4,335196495E0
2,692918452E1;1,639083475E-1;-9,216554642E0;-4,597210407E0
2,702918452E1;8,434699476E-2;-8,878568649E0;-4,433900356E0
2,712918452E1;-7,238288224E-2;-8,785846710E0;-4,454239368E0
2,722918452E1;2,991028316E-2;-8,621339798E0;-4,168895245E0
2,732918452E1;-2,177468538E-1;-8,882756233E0;-3,766901016E0
2,742918452E1;2,267199457E-1;-9,495916367E0;-3,473181963E0
2,752918452E1;4,378865361E-1;-9,339784622E0;-3,552145243E0
2,762918452E1;6,364908218E-1;-9,501898766E0;-3,753740549E0
2,772918452E1;-5,682953820E-2;-9,185447693E0;-4,064807415E0
2,782918452E1;-1,633101404E-1;-8,949754715E0;-3,473780155E0
2,792918452E1;-8,374879137E-3;-9,013762474E0;-4,018147469E0
2,802918452E1;6,580262445E-3;-8,819346428E0;-3,955335855E0
2,812918452E1;6,221338734E-2;-9,016754150E0;-4,329214573E0
2,822918452E1;1,836491376E-1;-8,892925262E0;-4,369892120E0
2,832918452E1;-1,513460279E-1;-8,709874153E0;-4,269991875E0
2,842918452E1;1,286142170E-1;-8,756534576E0;-4,346562386E0
2,852918452E1;4,366901144E-2;-8,763712883E0;-4,341776848E0
2,862918452E1;-1,854437590E-2;-8,890532494E0;-4,174877167E0
2,872918452E1;-4,965107143E-2;-8,896514893E0;-4,243670940E0
2,882918452E1;1,351944804E-1;-8,822337151E0;-4,235296249E0
2,892918452E1;1,208375469E-1;-8,840283394E0;-4,218546391E0
2,902918452E1;2,566302419E-1;-8,885746956E0;-4,125226021E0
2,912918452E1;1,369891018E-1;-8,797810555E0;-3,952344894E0
2,922918452E1;1,776670814E-1;-8,900103569E0;-4,106681824E0
2,932918452E1;3,792623878E-1;-8,960522652E0;-4,316053867E0
2,942918452E1;2,985046208E-1;-8,842676163E0;-4,165306091E0
2,952918452E1;1,190429255E-1;-8,858229637E0;-4,198207378E0
2,962918452E1;6,819544733E-2;-8,799605370E0;-4,133601189E0
2,972918452E1;-2,273181453E-2;-9,016754150E0;-4,023531437E0
2,982918452E1;-9,272187948E-2;-8,863015175E0;-4,043870449E0
2,992918452E1;7,537391037E-2;-8,922835350E0;-4,046861172E0
3,002918452E1;-6,640082598E-2;-8,872586250E0;-4,071985722E0
3,012918452E1;4,468596280E-1;-8,646464348E0;-4,232903481E0
3,022918452E1;5,898307562E-1;-8,832506180E0;-4,584648132E0
3,032918452E1;3,224328458E-1;-8,733802795E0;-4,484747887E0
3,042918452E1;3,332005441E-1;-8,845068932E0;-4,314857483E0
3,052918452E1;5,168496966E-1;-8,801400185E0;-4,380660057E0
3,062918452E1;4,348955154E-1;-8,677571297E0;-4,647459984E0
3,072918452E1;5,353940725E-1;-8,731410027E0;-4,792823792E0
3,082918452E1;3,230310678E-1;-8,828917503E0;-5,117051125E0
3,092918452E1;1,161117196E0;-8,541778564E0;-5,097310543E0
3,102918452E1;1,944168359E-1;-8,682356834E0;-5,249254704E0
3,112918452E1;6,592226624E-1;-8,115856171E0;-5,489135265E0
3,122918452E1;5,982056633E-2;-7,782655716E0;-5,380859852E0
3,132918452E1;4,450650215E-1;-8,291728973E0;-3,937987804E0
3,142918452E1;-2,291127741E-1;-8,478966713E0;-5,000401020E0
3,152918452E1;1,489532113E0;-8,094919205E0;-5,361717224E0
3,162918452E1;1,580459356E0;-8,998209953E0;-4,953142643E0
3,172918452E1;1,226321578E0;-8,049455643E0;-3,748356581E0
3,182918452E1;3,183650494E0;-7,819744587E0;-4,730610371E0
3,192918452E1;1,414158225E0;-9,531808853E0;-3,652045488E0
3,202918452E1;2,442473650E0;-9,597013474E0;-5,511867046E0
3,212918452E1;4,561916351E0;-7,336394310E0;-4,146761417E0
3,222918452E1;6,104688644E0;-5,559723377E0;-5,556732178E0
3,232918452E1;5,870192051E0;-5,797809124E0;-6,385247231E0
3,242918452E1;5,964708805E0;-5,612365723E0;-5,651248932E0
3,252918452E1;5,963512421E0;-5,067998409E0;-5,549553871E0
3,262918452E1;5,827719688E0;-5,524429321E0;-6,567101955E0
3,272918452E1;3,897309780E0;-5,248656273E0;-6,148955822E0
3,282918452E1;5,438885689E0;-6,661019802E0;-7,427321434E0
3,292918452E1;3,796811342E0;-5,064409256E0;-5,895316601E0
3,302918452E1;3,521636724E0;-4,768895626E0;-6,776473522E0
3,312918452E1;3,881756544E0;-4,540979385E0;-6,746563435E0
3,322918452E1;5,937191010E0;-4,052245140E0;-6,163911343E0
3,332918452E1;5,793622017E0;-4,398007870E0;-5,806184292E0
3,342918452E1;7,369893551E0;-7,881359577E0;-5,219942570E0
3,352918452E1;7,220342159E0;-1,062353420E1;-6,269793510E0
3,362918452E1;2,635095835E0;-6,092724800E0;-4,192225456E0
3,372918452E1;2,771486759E0;-9,611968994E0;-3,930809498E0
3,382918452E1;4,756333351E0;-9,785448074E0;-4,128815651E0
3,392918452E1;6,382256031E0;-8,297710419E0;-4,398007870E0
3,402918452E1;4,745565414E0;-7,594220638E0;-4,713860512E0
3,412918452E1;4,442873478E0;-5,340181828E0;-3,798007727E0
3,422918452E1;4,423132420E0;-6,083153248E0;-5,721239090E0
3,432918452E1;3,183052301E0;-3,518047571E0;-5,152345181E0
3,442918452E1;3,270390272E0;-4,118047714E0;-5,764309883E0
3,452918452E1;5,341378212E0;-5,196014404E0;-4,865804672E0
3,462918452E1;6,209972858E0;-8,178069115E0;-5,438287735E0
3,472918452E1;5,356333256E0;-1,032622623E1;-5,078167915E0
3,482918452E1;4,834099770E0;-1,049013424E1;-5,243870735E0
3,492918452E1;6,001797199E0;-9,153144836E0;-3,941577196E0
3,502918452E1;7,866404533E0;-9,153144836E0;-6,877570629E0
3,512918452E1;4,475774765E0;-6,086742401E0;-3,990629911E0
3,522918452E1;4,654638290E0;-5,297111034E0;-5,657230854E0
3,532918452E1;1,901695848E0;-7,483552694E-1;-4,652245522E0
3,542918452E1;3,224926710E0;-2,488535643E0;-4,253840446E0
3,552918452E1;5,872584820E0;-7,982456207E0;-4,658227444E0
3,562918452E1;6,393621922E0;-1,210768223E1;-4,987240791E0
3,572918452E1;3,726821184E0;-9,378668785E0;-4,120440483E0
3,582918452E1;3,436691523E0;-8,446065903E0;-4,106083870E0
3,592918452E1;7,113263607E0;-1,006899738E1;-5,553143024E0
3,602918452E1;4,563711166E0;-6,934998035E0;-4,418346882E0
3,612918452E1;2,849851847E0;-2,998805046E0;-5,450251579E0
3,622918452E1;1,250848055E0;-1,532004714E0;-2,785843849E0
3,632918452E1;5,143372059E0;-2,709273338E0;-4,443471432E0
3,642918452E1;6,582056999E0;-9,793823242E0;-4,031906128E0
3,652918452E1;6,012565136E0;-9,620942116E0;-4,352544308E0
3,662918452E1;5,200799942E0;-1,068215847E1;-5,203791142E0
3,672918452E1;3,598206997E0;-8,650651932E0;-4,376472473E0
3,682918452E1;7,545167923E0;-8,888737679E0;-7,311269760E0
3,692918452E1;5,860022545E0;-7,617550850E0;-6,461219311E0
3,702918452E1;3,410968781E0;-4,559523582E0;-4,667798996E0
3,712918452E1;2,533999205E0;-3,593421459E0;-4,075575352E0
3,722918452E1;4,077968121E0;-3,558127165E0;-4,724030018E0
3,732918452E1;5,478367329E0;-5,106881618E0;-4,555934429E0
3,742918452E1;5,388038158E0;-1,025563812E1;-4,638486862E0
3,752918452E1;4,956732273E0;-1,010608673E1;-5,332405090E0
3,762918452E1;4,342973232E0;-9,355937004E0;-4,319643021E0
3,772918452E1;4,626522541E0;-8,837292671E0;-3,171686411E0
3,782918452E1;4,542175770E0;-8,231309891E0;-4,556532383E0
3,792918452E1;5,569892883E0;-6,477969170E0;-4,497908592E0
3,802918452E1;2,073380709E0;-3,274577856E0;-3,092125177E0
3,812918452E1;2,331805706E0;-1,630708575E0;-4,014558315E0
3,822918452E1;5,468796253E0;-6,324828625E0;-5,368297577E0
3,832918452E1;5,121836662E0;-5,961717606E0;-3,509672642E0
3,842918452E1;5,816951752E0;-1,253898907E1;-5,326423168E0
3,852918452E1;4,297509670E0;-8,673383713E0;-3,808775425E0
3,862918452E1;2,969492912E0;-7,512865067E0;-2,850450039E0
3,872918452E1;4,998606682E0;-8,201997757E0;-5,231906891E0
3,882918452E1;6,241079807E0;-8,154141426E0;-4,167698860E0
3,892918452E1;4,447659016E0;-5,402395248E0;-5,264808178E0
3,902918452E1;4,213162422E0;-4,817350388E0;-4,945964336E0
3,912918452E1;4,147359848E0;-2,087139606E0;-5,161318302E0
3,922918452E1;4,335794449E0;-4,933402061E0;-4,500899315E0
3,932918452E1;4,716851711E0;-8,300103188E0;-4,622334957E0
3,942918452E1;5,466403484E0;-1,084666538E1;-4,374678135E0
3,952918452E1;5,317450047E0;-9,605388641E0;-4,731806755E0
3,962918452E1;4,885545731E0;-1,025264645E1;-5,709873199E0
3,972918452E1;6,126224041E0;-7,655836105E0;-3,869792461E0
3,982918452E1;4,577469826E0;-6,977470875E0;-3,737588882E0
3,992918452E1;5,682355404E0;-5,605186939E0;-5,328815937E0
4,002918452E1;4,387240410E0;-4,889732838E0;-5,209175110E0
4,012918452E1;3,568894863E0;-2,265404940E0;-4,660022259E0
4,022918452E1;5,712863922E0;-2,909074068E0;-5,506483078E0
4,032918452E1;5,499304771E0;-8,860024452E0;-4,581058979E0
4,042918452E1;5,362913609E0;-8,805587769E0;-3,812962770E0
4,052918452E1;4,620540619E0;-9,887143135E0;-3,927220106E0
4,062918452E1;4,905286312E0;-9,399007797E0;-4,181457520E0
4,072918452E1;5,359922886E0;-7,954340458E0;-3,847658873E0
4,082918452E1;5,612963676E0;-9,020941734E0;-3,857230186E0
4,092918452E1;3,923032761E0;-5,764309883E0;-4,027120590E0
4,102918452E1;3,671786308E0;-2,748754978E0;-5,117051125E0
4,112918452E1;2,912065268E0;-3,384647608E0;-4,981258392E0
4,122918452E1;5,003392220E0;-6,588637352E0;-4,170091629E0
4,132918452E1;6,192625046E0;-8,174480438E0;-3,385245800E0
4,142918452E1;5,438287735E0;-1,258564854E1;-6,305087566E0
4,152918452E1;4,512863636E0;-8,952746391E0;-4,960321426E0
4,162918452E1;3,735794306E0;-6,625127792E0;-2,267199516E0
4,172918452E1;7,068996429E0;-8,612366676E0;-5,311468124E0
4,182918452E1;5,425127029E0;-7,685148239E0;-3,102294445E0
4,192918452E1;2,395215511E0;-5,028516769E0;-4,092324734E0
4,202918452E1;3,656831264E0;-1,174875975E0;-4,637290478E0
4,212918452E1;5,319842815E0;-4,170091629E0;-5,313262463E0
4,222918452E1;5,712265968E0;-6,486343861E0;-3,896113396E0
4,232918452E1;4,920241356E0;-6,458826542E0;-4,514657974E0
4,242918452E1;5,502295494E0;-1,102911758E1;-4,366302967E0
4,252918452E1;5,243870735E0;-9,090931892E0;-4,187439442E0
4,262918452E1;3,878167391E0;-7,519444942E0;-1,731207132E0
4,272918452E1;5,007579803E0;-6,949953556E0;-3,397209883E0
4,282918452E1;5,750551224E0;-8,524430275E0;-4,579264164E0
4,292918452E1;2,830709219E0;-5,353342533E0;-3,028715372E0
4,302918452E1;3,804588079E0;-1,657627940E0;-5,964708805E0
4,312918452E1;5,964110374E0;-4,740181446E0;-5,869594097E0
4,322918452E1;3,675973892E0;-3,767499208E0;-1,804188251E0
4,332918452E1;4,126422882E0;-6,987640381E0;-3,611965895E0
4,342918452E1;6,281159401E0;-1,280937767E1;-6,303891182E0
4,352918452E1;6,169893265E0;-9,908080101E0;-4,056432724E0
4,362918452E1;4,022335052E0;-1,026102161E1;-3,664009571E0
4,372918452E1;5,224728107E0;-6,804589272E0;-3,678964853E0
4,382918452E1;7,235895634E0;-8,467002869E0;-5,389235020E0
4,392918452E1;6,111268997E0;-6,634698868E0;-5,341976643E0
4,402918452E1;1,400997639E0;-3,794418573E0;-3,134597778E0
4,412918452E1;4,605585575E0;-6,045466423E0;-6,772884369E0
4,422918452E1;5,945566177E0;-4,250251293E0;-6,647261143E0
4,432918452E1;5,824130535E0;-4,989633560E0;-3,193221807E0
4,442918452E1;1,074078274E1;-1,299063396E1;-5,592026711E0
4,452918452E1;1,465005636E0;-3,573082447E0;-1,190429211E0
4,462918452E1;3,820739508E0;-7,764111042E0;-1,671386600E0
4,472918452E1;4,759922504E0;-1,023230743E1;-4,825126648E0
4,482918452E1;4,022335052E0;-6,410970211E0;-1,817947030E0
4,492918452E1;6,695715904E0;-7,738388538E0;-4,393222332E0
4,502918452E1;7,380063057E0;-6,869793892E0;-5,059025288E0
4,512918452E1;4,564907551E0;-5,823532104E0;-6,297909260E0
4,522918452E1;3,812364578E0;-3,757329702E0;-3,916452408E0
4,532918452E1;4,396811485E0;-3,794418573E0;-5,402395248E0
4,542918452E1;4,742574692E0;-4,573880672E0;-5,339583874E0
4,552918452E1;4,776672363E0;-4,509872437E0;-2,174477577E0
4,562918452E1;6,541976929E0;-9,806983948E0;-4,171886444E0
4,572918452E1;5,558526993E0;-8,513663292E0;-4,249054909E0
4,582918452E1;3,994817495E0;-5,382056236E0;-5,277370453E0
4,592918452E1;5,166104317E0;-1,250967693E1;-6,229115486E0
4,602918452E1;5,542375565E0;-5,495117188E0;-4,473381996E0
4,612918452E1;5,264209747E0;-8,324629784E0;-6,596413612E0
4,622918452E1;5,078167915E0;-5,260022163E0;-6,812366009E0
4,632918452E1;3,494717360E0;-2,974876642E0;-4,455435753E0
4,642918452E1;4,891527653E0;-2,968894720E0;-8,155337334E0
4,652918452E1;3,166900873E0;-4,905286312E0;-5,635695457E0
4,662918452E1;8,782855988E0;-6,778268337E0;-3,937389612E0
4,672918452E1;2,664407969E0;-1,069172955E1;-2,796611547E0
4,682918452E1;2,029711723E0;-7,865806103E0;-3,357130051E0
4,692918452E1;2,233101845E0;-9,443274498E0;-3,861417532E0
4,702918452E1;3,549752474E0;-7,093522549E0;-2,187638044E0
4,712918452E1;7,984848976E0;-9,538389206E0;-5,713462353E0
4,722918452E1;4,686941147E0;-6,052644730E0;-3,479164124E0
4,732918452E1;7,499105930E0;-5,977271080E0;-6,034698486E0
4,742918452E1;1,431506157E0;-9,577272534E-1;-3,968496323E0
4,752918452E1;2,456232548E0;-3,598206997E0;-5,425127029E0
4,762918452E1;5,793023586E0;-6,632306099E0;-3,853042603E0
4,772918452E1;3,397808075E0;-4,527220249E0;-4,168895245E0
4,782918452E1;5,815157413E0;-7,878966808E0;-3,355933666E0
4,792918452E1;3,784847260E0;-8,545368195E0;-2,822334290E0
4,802918452E1;4,229912281E0;-8,952147484E0;-3,455834150E0
4,812918452E1;5,073980331E0;-7,204190731E0;-2,364706993E0
4,822918452E1;6,741179466E0;-8,090731621E0;-4,412963390E0
4,832918452E1;6,565905571E0;-7,066005230E0;-3,484548092E0
4,842918452E1;5,429912567E0;-5,514857769E0;-4,922634602E0
4,852918452E1;3,353540897E0;-2,241476536E0;-4,688735962E0
4,862918452E1;6,444469452E0;-4,046263218E0;-5,250451088E0
4,872918452E1;5,288137913E0;-7,350152969E0;-3,600599766E0
4,882918452E1;7,869993687E0;-8,908478737E0;-4,333401680E0
4,892918452E1;7,028916359E0;-1,094895840E1;-5,094319344E0
4,902918452E1;3,699303865E0;-7,103692055E0;-3,713660717E0
4,912918452E1;9,673583984E0;-1,211366463E1;-6,461219311E0
4,922918452E1;1,839482427E0;-7,228717327E0;-4,229313850E0
4,932918452E1;6,171089649E0;-7,384849072E0;-5,452644825E0
4,942918452E1;6,209374905E0;-5,172684193E0;-4,689334393E0
4,952918452E1;4,178466320E0;-3,576073408E0;-3,688536167E0
4,962918452E1;4,606781960E0;-2,319243431E0;-4,287340164E0
4,972918452E1;6,105287075E0;-6,524629116E0;-4,713262558E0
4,982918452E1;6,443273067E0;-6,210571289E0;-4,936991215E0
4,992918452E1;4,987240791E0;-6,385247231E0;-4,391427994E0
5,002918452E1;6,052644730E0;-8,553742409E0;-4,465006828E0
5,012918452E1;3,933800459E0;-9,832706451E0;-4,054039955E0
5,022918452E1;4,192225456E0;-7,032505512E0;-2,218744755E0
5,032918452E1;6,808776855E0;-8,845666885E0;-5,029115200E0
5,042918452E1;6,902096748E0;-9,146564484E0;-4,730011940E0
5,052918452E1;4,473381996E0;-4,338187218E0;-4,472185612E0
5,062918452E1;4,537389755E0;-4,837689400E0;-5,103890896E0
5,072918452E1;4,050450325E0;-3,363112211E0;-4,662415028E0
5,082918452E1;4,077369690E0;-3,559921980E0;-4,053441525E0
5,092918452E1;5,437689304E0;-7,779664516E0;-4,140779495E0
5,102918452E1;7,794619560E0;-1,045364380E1;-4,244867325E0
5,112918452E1;6,839883327E0;-1,055892849E1;-3,836891174E0
5,122918452E1;4,073182583E0;-8,524430275E0;-2,569293261E0
5,132918452E1;7,073781967E0;-9,771689415E0;-3,872185230E0
5,142918452E1;6,869195461E0;-7,493722439E0;-4,052245140E0
5,152918452E1;6,631109715E0;-8,292924881E0;-4,767699242E0
5,162918452E1;4,355535507E0;-1,736590981E0;-6,135795593E0
5,172918452E1;4,152145386E0;-2,115255117E0;-6,080760479E0
5,182918452E1;4,757529736E0;-6,929614544E0;-4,290330887E0
5,192918452E1;1,982453585E0;-5,466403484E0;-2,778067112E0
5,202918452E1;8,005785942E0;-8,324629784E0;-5,751149178E0
5,212918452E1;1,234995556E1;-1,815853310E1;-8,941379547E0
5,222918452E1;1,338784218E0;-1,865205288E0;1,184447184E-1
5,232918452E1;6,414559364E0;-7,868797302E0;-4,743172646E0
5,242918452E1;7,243672371E0;-9,518648148E0;-3,217149973E0
5,252918452E1;2,766701221E0;-8,267202377E0;-3,997210264E0
5,262918452E1;4,890929699E0;-6,527620316E0;-3,184248686E0
5,272918452E1;5,680561066E0;-5,807978630E0;-4,095315933E0
5,282918452E1;2,696112871E0;-2,732603550E0;-4,034298897E0
5,292918452E1;5,096114159E0;-6,439085960E0;-4,470390797E0
5,302918452E1;4,436293125E0;-6,931408882E0;-5,143970490E0
5,312918452E1;7,657032490E0;-4,716253281E0;-5,248656273E0
5,322918452E1;6,123233318E0;-3,964308977E0;-5,795416355E0
5,332918452E1;7,311269760E0;-6,025725842E0;-6,091528416E0
5,342918452E1;5,060221672E0;-3,987040758E0;-4,686343193E0
5,352918452E1;6,189633846E0;-4,755136967E0;-5,516652584E0
5,362918452E1;6,863213539E0;-5,236093998E0;-5,876772404E0
5,372918452E1;6,147759438E0;-6,597012043E0;-6,488138676E0
5,382918452E1;7,013961315E0;-6,136991978E0;-6,734001160E0
5,392918452E1;3,406183004E0;-3,722633839E0;-4,374678135E0
5,402918452E1;9,991230965E0;-7,752745152E0;-8,174480438E0
5,412918452E1;4,293322086E0;-9,930213690E-1;-2,983251572E0
5,422918452E1;6,123831272E0;-6,565905571E0;-5,353342533E0
5,432918452E1;7,632505894E0;-5,968297958E0;-6,614958286E0
5,442918452E1;3,751347780E0;-5,126622677E0;-4,948955536E0
5,452918452E1;5,991627693E0;-5,182255745E0;-5,605186939E0
5,462918452E1;7,436892986E0;-6,071787357E0;-6,814160824E0
5,472918452E1;6,357729912E0;-6,419943333E0;-6,259026051E0
5,482918452E1;5,488536835E0;-4,735994339E0;-5,603392601E0
5,492918452E1;6,418148518E0;-5,641079426E0;-5,986842155E0
5,502918452E1;6,720840454E0;-6,644270420E0;-6,736992359E0
5,512918452E1;4,209573269E0;-3,717249870E0;-4,920241356E0
5,522918452E1;6,252445698E0;-5,329414368E0;-5,957530022E0
5,532918452E1;6,292525291E0;-5,767300606E0;-6,384050846E0
5,542918452E1;4,167698860E0;-3,840480328E0;-4,806582451E0
5,552918452E1;5,918048382E0;-5,052444935E0;-6,531807423E0
5,562918452E1;5,854040623E0;-4,162314892E0;-6,217151642E0
5,572918452E1;5,867201328E0;-6,548557281E0;-6,012565136E0
5,582918452E1;5,095515728E0;-4,093521118E0;-5,365904808E0
5,592918452E1;5,712863922E0;-4,304687977E0;-6,830312252E0
5,602918452E1;6,675376892E0;-4,708476543E0;-6,062216282E0
5,612918452E1;3,728017569E0;-4,827519894E0;-4,943571568E0
5,622918452E1;5,654838085E0;-8,396414757E0;-8,810373306E0
5,632918452E1;7,466803074E0;-5,863611698E0;-8,188239098E0
5,642918452E1;4,767699242E0;-5,709274769E0;-5,457430363E0
5,652918452E1;1,764706671E-1;-4,619344234E0;-3,176472187E-1
5,662918452E1;1,228116226E1;-8,493324280E0;-8,432307243E0
5,672918452E1;5,827121258E0;-4,922634602E0;-5,654838085E0
5,682918452E1;4,827519894E0;-2,711068153E0;-4,983053207E0
5,692918452E1;6,991827965E0;-2,891726255E0;-5,653043270E0
5,702918452E1;6,208776474E0;-3,632902861E0;-4,734797955E0
5,712918452E1;5,538187981E0;-5,969494343E0;-4,838885784E0
5,722918452E1;6,549155712E0;-9,525827408E0;-5,615356445E0
5,732918452E1;4,460221291E0;-7,222136974E0;-3,604189157E0
5,742918452E1;6,841079712E0;-1,164227867E1;-4,474578381E0
5,752918452E1;3,658625841E0;-1,011685371E1;-2,987439156E0
5,762918452E1;2,249851465E0;-5,593223095E0;-1,889133453E0
5,772918452E1;4,384847641E0;-5,821737289E0;-2,293520451E0
5,782918452E1;7,887341499E0;-8,522636414E0;-3,930809498E0
5,792918452E1;6,423532486E0;-6,737590313E0;-3,755535126E0
5,802918452E1;5,702694416E0;-5,608178139E0;-4,054039955E0
5,812918452E1;5,403591633E0;-4,817948341E0;-4,810171604E0
5,822918452E1;4,353142738E0;-2,755335331E0;-4,798207760E0
5,832918452E1;3,513261795E0;-2,551347256E0;-4,042075634E0
5,842918452E1;6,769295216E0;-5,191826820E0;-4,485944271E0
5,852918452E1;6,566503525E0;-8,855237961E0;-3,571287870E0
5,862918452E1;5,718846321E0;-9,029315948E0;-3,364308596E0
5,872918452E1;5,271388054E0;-9,918848038E0;-3,884149313E0
5,882918452E1;5,962913990E0;-9,480362892E0;-3,620938778E0
5,892918452E1;7,155735970E0;-7,549355507E0;-2,352144718E0
5,902918452E1;5,773880959E0;-6,628716946E0;-3,370888948E0
5,912918452E1;5,872584820E0;-6,396014690E0;-4,241876125E0
5,922918452E1;6,161518097E0;-6,132206440E0;-4,864608288E0
5,932918452E1;3,864408493E0;-2,035095692E0;-3,266202927E0
5,942918452E1;5,053043365E0;-2,252244234E0;-4,796412945E0
5,952918452E1;6,488138676E0;-5,612963676E0;-4,202394962E0
5,962918452E1;6,193821430E0;-7,920841217E0;-3,205784082E0
5,972918452E1;6,305087566E0;-9,902098656E0;-3,196212769E0
5,982918452E1;6,617351055E0;-1,028674412E1;-3,748954773E0
5,992918452E1;4,268795490E0;-8,919844627E0;-3,233899832E0
6,002918452E1;6,267998695E0;-8,610571861E0;-2,394019127E0
6,012918452E1;6,219544411E0;-7,294519901E0;-3,861417532E0
6,022918452E1;7,094120979E0;-5,997610092E0;-4,023531437E0
6,032918452E1;3,653241873E0;-3,114258766E0;-3,630510092E0
6,042918452E1;3,907479286E0;-1,447059512E0;-4,372883320E0
6,052918452E1;6,741777897E0;-5,146961689E0;-4,219742775E0
6,062918452E1;5,894120216E0;-7,391428947E0;-3,755535126E0
6,072918452E1;6,627520561E0;-9,660423279E0;-4,021736622E0
6,082918452E1;5,888736725E0;-8,467002869E0;-3,721437454E0
6,092918452E1;5,650052547E0;-8,500502586E0;-3,215953588E0
6,102918452E1;7,933403492E0;-9,008378983E0;-3,963710785E0
6,112918452E1;6,406782627E0;-7,219744205E0;-3,672384501E0
6,122918452E1;3,725026608E0;-3,686143398E0;-3,595814228E0
6,132918452E1;3,346362352E0;-2,805584431E0;-3,497110367E0
6,142918452E1;4,898705959E0;-3,850649834E0;-3,830310822E0
6,152918452E1;5,373083115E0;-6,744768620E0;-3,658027649E0
6,162918452E1;6,022136211E0;-1,028315544E1;-3,701098442E0
6,172918452E1;6,710670948E0;-9,757332802E0;-3,626920938E0
6,182918452E1;5,633901119E0;-9,168698311E0;-3,674777269E0
6,192918452E1;6,635297298E0;-1,020897770E1;-3,131008387E0
6,202918452E1;6,743572235E0;-7,441080093E0;-3,331407309E0
6,212918452E1;4,875376225E0;-4,761118889E0;-3,098705292E0
6,222918452E1;3,780659676E0;-3,497708559E0;-4,017549038E0
6,232918452E1;2,400599241E0;-2,999403238E0;-3,348755360E0
6,242918452E1;8,415556908E0;-9,820742607E0;-4,484747887E0
6,252918452E1;8,769096375E0;-1,219502068E1;-5,861218929E0
6,262918452E1;7,487740040E0;-1,037827015E1;-4,953741074E0
6,272918452E1;8,405387878E0;-1,144546890E1;-3,725624800E0
6,282918452E1;7,711469173E0;-6,908677101E0;-4,000201225E0
6,292918452E1;7,664809227E0;-6,350551128E0;-3,870390654E0
6,302918452E1;3,129213810E0;-4,359124660E0;-3,344567776E0
6,312918452E1;1,923231244E0;-1,396810174E0;-2,418545485E0
6,322918452E1;6,756732941E0;-5,562116146E0;-4,496711731E0
6,332918452E1;7,441678524E0;-1,159980583E1;-3,805186272E0
6,342918452E1;7,046862602E0;-9,681958199E0;-3,853042603E0
6,352918452E1;5,551946640E0;-1,010070229E1;-3,708276987E0
6,362918452E1;7,424928665E0;-8,986844063E0;-2,922832966E0
6,372918452E1;6,398407936E0;-6,603592396E0;-4,087539196E0
6,382918452E1;5,761917114E0;-6,022734642E0;-3,730410576E0
6,392918452E1;3,499503136E0;-3,678366661E0;-3,643072367E0
6,402918452E1;3,653840065E0;-2,120040894E0;-4,198805332E0
6,412918452E1;6,136393547E0;-6,238687038E0;-3,608376503E0
6,422918452E1;7,396214962E0;-8,838488579E0;-3,339782238E0
6,432918452E1;6,461219311E0;-9,394221306E0;-4,314857483E0
6,442918452E1;6,180062771E0;-9,884750366E0;-3,870390654E0
6,452918452E1;7,428517818E0;-8,419146538E0;-2,518445730E0
6,462918452E1;8,682954788E0;-7,924430370E0;-4,768895626E0
6,472918452E1;5,623133183E0;-6,017350674E0;-3,280559778E0
6,482918452E1;5,169095039E0;-4,514657974E0;-3,328416348E0
6,492918452E1;5,140381336E0;-2,382055044E0;-4,417748928E0
6,502918452E1;5,866004944E0;-3,777070522E0;-3,804588079E0
6,512918452E1;6,057430744E0;-9,830313683E0;-3,347558975E0
6,522918452E1;7,377670288E0;-9,991828918E0;-3,451048374E0
6,532918452E1;6,939185619E0;-8,946166039E0;-2,906681299E0
6,542918452E1;4,484149456E0;-9,336195946E0;-2,778067112E0
6,552918452E1;7,233502865E0;-7,855038643E0;-3,629911900E0
6,562918452E1;6,092126369E0;-6,284150600E0;-3,034697294E0
6,572918452E1;5,904289722E0;-4,466801643E0;-3,678366661E0
6,582918452E1;4,724628448E0;-2,497508526E0;-3,507279873E0
6,592918452E1;5,807380676E0;-4,572684288E0;-3,812962770E0
6,602918452E1;6,279364586E0;-5,870192051E0;-1,994417667E0
6,612918452E1;8,795417786E0;-1,144666576E1;-2,469991207E0
6,622918452E1;1,679163337E0;-6,284150600E0;-2,898904562E0
6,632918452E1;4,322035789E0;-7,505686283E0;-7,567301393E-1
6,642918452E1;1,208554935E1;-1,356132221E1;-5,551946640E0
6,652918452E1;6,314659119E0;-5,165505886E0;-2,312663078E0
6,662918452E1;9,188439369E0;-1,156989574E1;-5,748157978E0
6,672918452E1;-2,247458696E0;1,626521230E0;-1,617548108E0
6,682918452E1;6,291328907E0;-5,675775528E0;-2,636292458E0
6,692918452E1;7,327421188E0;-1,013719273E1;-1,426720500E0
6,702918452E1;6,763313293E0;-1,113858986E1;-4,035495281E0
6,712918452E1;6,851847649E0;-8,755936623E0;-2,035693884E0
6,722918452E1;7,288537979E0;-9,154939651E0;-3,623929977E0
6,732918452E1;9,310472488E0;-9,190832138E0;-4,485944271E0
6,742918452E1;5,779862881E0;-5,960521221E0;-2,126022816E0
6,752918452E1;4,594817638E0;-4,560719967E0;-2,420938253E0
6,762918452E1;3,256631613E0;-4,602594376E0;-3,944568157E0
6,772918452E1;3,279363394E0;-1,205384374E0;-5,143970490E0
6,782918452E1;4,558327198E0;-5,478367329E0;-3,824927092E0
6,792918452E1;5,703890800E0;-7,067800045E0;-3,717848301E0
6,802918452E1;8,356334686E0;-1,065404320E1;-4,512863636E0
6,812918452E1;5,386243820E0;-7,175477028E0;-1,345962763E0
6,822918452E1;7,212565422E0;-9,179466248E0;-2,857628345E0
6,832918452E1;6,871588230E0;-6,400202274E0;-4,659423828E0
6,842918452E1;5,230710506E0;-7,765905857E0;-3,778865099E0
6,852918452E1;4,890331268E0;-3,771088600E0;-3,254238844E0
6,862918452E1;4,176671982E0;-8,470591903E-1;-4,161716938E0
6,872918452E1;7,878966808E0;-7,361518860E0;-3,786641836E0
6,882918452E1;5,481956482E0;-7,621140003E0;-2,830111027E0
6,892918452E1;7,058826923E0;-1,081675434E1;-4,366302967E0
6,902918452E1;4,966901779E0;-9,771689415E0;-4,001996040E0
6,912918452E1;6,823731899E0;-9,195018768E0;-3,212962627E0
6,922918452E1;5,040481091E0;-7,603193760E0;-1,974078655E0
6,932918452E1;6,876374245E0;-6,444469452E0;-1,338186026E0
6,942918452E1;8,873783112E0;-7,045666218E0;-2,270788670E0
6,952918452E1;3,412763357E0;-1,215553880E0;-3,692723513E0
6,962918452E1;3,903291941E0;-2,934797049E0;-4,308875561E0
6,972918452E1;5,614160061E0;-5,029115200E0;-3,400201082E0
6,982918452E1;6,680760860E0;-1,031545830E1;-2,577668190E0
6,992918452E1;7,324429989E0;-1,016889763E1;-4,178466320E0
7,002918452E1;8,849854469E0;-1,039322472E1;-3,326023579E0
7,012918452E1;7,245467186E0;-9,018548965E0;-2,590828657E0
7,022918452E1;7,927421570E0;-8,636893272E0;-3,159124136E0
7,032918452E1;6,480361938E0;-5,225326538E0;-4,015156269E0
7,042918452E1;5,073980331E0;-5,776872158E0;-3,039483070E0
7,052918452E1;3,305086374E0;-3,048455954E0;-3,897907972E0
7,062918452E1;4,302295208E0;-3,412165165E0;-4,697709084E0
7,072918452E1;5,027320385E0;-6,792625427E0;-3,393620729E0
7,082918452E1;5,734997749E0;-1,093340492E1;-3,497708559E0
7,092918452E1;5,412564754E0;-8,535198212E0;-2,782254457E0
7,102918452E1;5,894718647E0;-9,376275063E0;-4,071387768E0
7,112918452E1;5,741578102E0;-9,467801094E0;-1,853839397E0
7,122918452E1;5,511268616E0;-6,403193474E0;-2,463410854E0
7,132918452E1;6,516852379E0;-4,634897232E0;-2,683550596E0
7,142918452E1;2,466402054E0;-2,761317253E0;-4,407579422E0
7,152918452E1;2,760719061E0;-6,580262631E-2;-1,165304661E0
7,162918452E1;6,984649181E0;-5,829514027E0;-2,753540754E0
7,172918452E1;5,764907837E0;-8,164909363E0;-1,880160451E0
7,182918452E1;6,089733601E0;-7,137789726E0;-3,311068296E0
7,192918452E1;7,891529083E0;-1,076411247E1;-2,941377163E0
7,202918452E1;4,108476639E0;-8,502297401E0;-1,420738459E0
7,212918452E1;5,997610092E0;-6,898507595E0;-1,487139225E0
7,222918452E1;8,821739197E0;-7,478767395E0;-3,893122435E0
7,232918452E1;7,232904434E0;-5,482554913E0;-3,090330362E0
7,242918452E1;3,500101328E0;-2,466402054E0;-2,394617319E0
7,252918452E1;2,980260611E0;-2,709273338E0;-3,667000771E0
7,262918452E1;3,458226919E0;-6,580860615E0;-2,158325911E0
7,272918452E1;8,053643227E0;-9,385248184E0;-4,521238327E0
7,282918452E1;8,359924316E0;-9,677771568E0;-2,210369825E0
7,292918452E1;9,535996437E0;-9,357730865E0;-1,296311617E0
7,302918452E1;2,718844652E0;-7,842476368E0;-1,336989641E0
7,312918452E1;6,711269379E0;-7,490133286E0;-2,623131752E0
7,322918452E1;9,493523598E0;-5,985645771E0;-4,858626366E0
7,332918452E1;2,786442041E0;-2,335993052E0;-1,853839397E0
7,342918452E1;2,644068956E0;-2,812164783E0;-3,338585854E0
7,352918452E1;6,111268997E0;-4,852644444E0;-2,348555326E0
7,362918452E1;7,027122021E0;-9,795618057E0;-3,839283943E0
7,372918452E1;5,965306759E0;-1,001216793E1;-3,653840065E0
7,382918452E1;6,072385788E0;-9,771091461E0;-2,730808735E0
7,392918452E1;4,157529354E0;-8,723034859E0;-1,954936147E0
7,402918452E1;9,121439934E0;-1,125284672E1;-3,482753277E0
7,412918452E1;4,617549419E0;-3,537788391E0;-1,585843205E0
7,422918452E1;1,089631653E1;-6,904489517E0;-7,664210796E0
7,432918452E1;-2,058425665E0;1,489532143E-1;-3,290131092E-1
7,442918452E1;3,153141975E0;-1,470389485E0;-3,546163082E0
7,452918452E1;9,875179291E0;-9,988838196E0;-3,419941664E0
7,462918452E1;6,832705021E0;-8,818149567E0;-2,542374134E0
7,472918452E1;7,672585964E0;-1,095314598E1;-3,591626883E0
7,482918452E1;5,770890236E0;-9,611370087E0;-3,093321562E0
7,492918452E1;6,013761520E0;-8,145168304E0;-2,315654039E0
7,502918452E1;8,621339798E0;-8,911469460E0;-1,992024899E0
7,512918452E1;7,373483181E0;-7,417151928E0;-3,075973511E0
7,522918452E1;5,297709465E0;-5,724229813E0;-2,749353170E0
7,532918452E1;4,800002098E0;-3,245265722E0;-2,650051117E0
7,542918452E1;5,120640278E0;-1,444068432E0;-2,733799934E0
7,552918452E1;7,551149845E0;-7,320840836E0;-3,188436270E0
7,562918452E1;4,369294167E0;-7,645068169E0;-2,090130568E0
7,572918452E1;8,761918068E0;-1,056072235E1;-3,819543123E0
7,582918452E1;3,795016766E0;-7,025327206E0;-1,717448473E0
7,592918452E1;4,176671982E0;-1,005284595E1;-2,317448616E0
7,602918452E1;7,234101295E0;-7,927421570E0;-2,525026083E0
7,612918452E1;1,107159042E1;-7,894520283E0;-3,160918713E0
7,622918452E1;1,107159042E1;-7,894520283E0;-3,160918713E0
7,632918452E1;2,441277266E0;-4,763511658E0;-1,945364833E0
7,642918452E1;7,039684296E0;-4,511068821E0;-3,626322746E0
7,652918452E1;5,526822090E0;-5,888138294E0;-2,710469961E0
7,662918452E1;7,171887875E0;-9,585049629E0;-2,627917528E0
7,672918452E1;4,805984497E0;-9,116654396E0;-4,460221291E0
7,682918452E1;6,324828625E0;-8,064410210E0;-1,036092162E0
7,692918452E1;5,125426292E0;-9,015557289E0;-1,485344648E0
7,702918452E1;6,308676720E0;-8,752944946E0;-3,415754318E0
7,712918452E1;7,515855789E0;-6,881757736E0;-3,057429075E0
7,722918452E1;5,149952412E0;-2,431705952E0;-4,465605259E0
7,732918452E1;3,841078520E0;-2,078166485E0;-1,858026743E0
7,742918452E1;6,796214581E0;-4,989035130E0;-3,867997885E0
7,752918452E1;4,566701889E0;-7,308278561E0;-2,084148407E0
7,762918452E1;6,220142365E0;-9,301499367E0;-3,469592810E0
7,772918452E1;6,220142365E0;-9,301499367E0;-3,469592810E0
7,782918452E1;7,555935860E0;-9,518648148E0;-2,484348059E0
7,792918452E1;9,468997002E0;-8,142775536E0;-2,606980324E0
7,802918452E1;7,671389580E0;-7,520641804E0;-2,704487801E0
7,812918452E1;5,307878971E0;-3,912863255E0;-2,335394859E0
7,822918452E1;5,540580750E0;-3,802195072E0;-4,073780537E0
7,832918452E1;4,568496704E0;-3,180061340E0;-2,467000246E0
7,842918452E1;8,481359482E0;-6,488138676E0;-2,545365095E0
7,852918452E1;7,254439831E0;-8,178668022E0;-1,490728498E0
7,862918452E1;5,671587944E0;-8,529814720E0;-2,118246317E0
7,872918452E1;5,390431404E0;-7,845467091E0;-2,734996319E0
7,882918452E1;6,303293228E0;-1,043270683E1;-3,290131092E0
7,892918452E1;2,979662418E0;-6,315257072E0;-2,034497499E0
7,902918452E1;8,916853905E0;-5,904888153E0;-2,958725214E0
7,912918452E1;5,517251015E0;-4,475774765E0;-3,503092289E0
7,922918452E1;1,852044702E0;-2,832503796E0;-2,325225353E0
7,932918452E1;7,033103943E0;-4,075575352E0;-2,502892494E0
7,942918452E1;7,320840836E0;-9,182456970E0;-3,132802963E0
7,952918452E1;7,650452137E0;-9,229715347E0;-2,628515720E0
7,962918452E1;6,765706062E0;-9,294321060E0;-2,377867460E0
7,972918452E1;5,234299660E0;-8,639286041E0;-2,202593327E0
7,982918452E1;7,791030407E0;-1,000020409E1;-2,830111027E0
7,992918452E1;6,647261143E0;-7,453642368E0;-2,501696110E0
8,002918452E1;5,064409256E0;-5,366502762E0;-2,934198856E0
8,012918452E1;7,052844524E0;-4,353740692E0;-4,180261135E0
8,022918452E1;5,328815937E0;-2,081157446E0;-3,176471949E0
8,032918452E1;4,846662045E0;-3,046661377E0;-1,638485312E0
8,042918452E1;7,884350777E0;-1,028136063E1;-3,768695593E0
8,052918452E1;7,903493404E0;-1,066301632E1;-3,118446112E0
8,062918452E1;6,472585201E0;-8,745766640E0;-2,185843468E0
8,072918452E1;5,499902725E0;-9,541978836E0;-2,203789711E0
8,082918452E1;8,335397720E0;-9,818349838E0;-2,142772675E0
8,092918452E1;7,975875854E0;-8,449056625E0;-3,305086374E0
8,102918452E1;5,149952412E0;-5,987440586E0;-3,719642878E0
8,112918452E1;4,747360229E0;-3,909872293E0;-2,246860504E0
8,122918452E1;6,081358910E0;-3,465405464E0;-3,081955671E0
8,132918452E1;6,479165554E0;-5,450251579E0;-2,026720762E0
8,142918452E1;7,604390144E0;-9,324232101E0;-2,653042078E0
8,152918452E1;7,093522549E0;-1,008814049E1;-2,000399828E0
8,162918452E1;5,533402443E0;-8,910273552E0;-1,581655741E0
8,172918452E1;5,955137253E0;-1,012044334E1;-3,654438496E0
8,182918452E1;6,083751678E0;-8,276773453E0;-1,701296926E0
8,192918452E1;6,166304111E0;-5,693721294E0;-2,995813847E0
8,202918452E1;6,597012043E0;-6,357729912E0;-4,497310162E0
8,212918452E1;3,092723370E0;-3,700500250E0;-2,794816732E0
8,222918452E1;4,600799561E0;-9,248259664E-1;-2,569891453E0
8,232918452E1;8,628518105E0;-1,119661522E1;-2,910868645E0
8,242918452E1;7,441678524E0;-6,703492641E0;-1,007976532E0
8,252918452E1;1,110748291E1;-1,611326790E1;-3,722035646E0
8,262918452E1;4,831707001E0;-8,385646820E0;-1,823330879E0
8,272918452E1;8,790632248E0;-1,128395367E1;-1,769492388E0
8,282918452E1;2,565704107E0;-6,355337143E0;-3,096312523E0
8,292918452E1;9,489336014E0;-8,469993591E0;-3,384049416E0
8,302918452E1;7,121040344E0;-5,624329567E0;-3,631706476E0
8,312918452E1;3,617947817E0;-2,883949518E0;-3,133401155E0
8,322918452E1;7,088737011E0;-5,042275429E0;-3,303889751E0
8,332918452E1;9,624530792E0;-7,520641804E0;-3,629313707E0
8,342918452E1;7,440482140E0;-1,082333469E1;-2,271985054E0
8,352918452E1;4,478765965E0;-7,881958008E0;-2,092523336E0
8,362918452E1;6,416353703E0;-8,733204842E0;-2,556132793E0
8,372918452E1;7,125227451E0;-1,048295593E1;-1,937588096E0
8,382918452E1;7,063014030E0;-8,261817932E0;-2,352144718E0
8,392918452E1;6,923632145E0;-5,356931686E0;-3,086741209E0
8,402918452E1;6,269195557E0;-6,248856544E0;-3,356531858E0
8,412918452E1;3,402593851E0;-1,879562140E0;-1,906481385E0
8,422918452E1;3,113660574E0;-1,278963685E0;-6,891329288E-1
8,432918452E1;3,134597778E0;-1,071685410E1;-7,543373108E-1
8,442918452E1;8,622536659E0;-1,031785107E1;-1,264008522E0
8,452918452E1;7,908876896E0;-1,638844299E1;-3,703491211E0
8,462918452E1;3,948755503E0;-7,695317745E0;-2,397608280E0
8,472918452E1;7,786244869E0;-8,362317085E0;-2,178066730E0
8,482918452E1;9,915258408E0;-8,501698494E0;-1,970489502E0
8,492918452E1;7,411170006E0;-5,117649555E0;-3,655036688E0
8,502918452E1;3,983451605E0;-3,784249067E0;-1,606780410E0
8,512918452E1;3,123231649E0;-3,179463148E0;-1,879562140E0
8,522918452E1;6,671787739E0;-7,566703320E0;-1,238285661E0
8,532918452E1;8,264211655E0;-9,668798447E0;-2,159522533E0
8,542918452E1;6,578467846E0;-8,318648338E0;-1,457229018E0
8,552918452E1;4,850251675E0;-7,928019524E0;-2,744567633E0
8,562918452E1;4,791028976E0;-9,458827972E0;-1,702493310E0
8,572918452E1;6,048457623E0;-6,631708145E0;-2,291725874E0
8,582918452E1;8,513064384E0;-9,234500885E0;-3,445066452E0
8,592918452E1;5,144568920E0;-4,642673969E0;-2,045265198E0
8,602918452E1;5,204389095E0;-2,710469961E0;-3,789632797E0
8,612918452E1;6,799205780E0;-5,801398277E0;-3,092125177E0
8,622918452E1;6,314659119E0;-5,372485161E0;-1,375872970E0
8,632918452E1;7,389036179E0;-1,211007500E1;-1,373480201E0
8,642918452E1;5,043471813E0;-8,405387878E0;-1,774278045E0
8,652918452E1;5,940780640E0;-7,542177200E0;-1,419542074E0
8,662918452E1;7,692326546E0;-1,009890842E1;-2,422732830E0
8,672918452E1;7,608577728E0;-9,031708717E0;-2,801995277E0
8,682918452E1;6,242276192E0;-4,913661480E0;-2,672184706E0
8,692918452E1;4,188635826E0;-3,564109325E0;-3,719642878E0
8,702918452E1;3,326023579E0;-3,497110367E0;-2,309073925E0
8,712918452E1;6,520441532E0;-7,369893551E0;-2,717050076E0
8,722918452E1;6,661019802E0;-8,930013657E0;-1,816750646E0
8,732918452E1;7,266404152E0;-1,118285656E1;-2,371885538E0
8,742918452E1;4,497908592E0;-8,243273735E0;-9,104689956E-1
8,752918452E1;7,424330235E0;-1,018445110E1;-2,073979139E0
8,762918452E1;6,935596466E0;-9,411569595E0;-2,853441000E0
8,772918452E1;6,250650883E0;-6,672386169E0;-1,871785522E0
8,782918452E1;7,564908981E0;-5,788836002E0;-3,785445452E0
8,792918452E1;3,961916208E0;-1,602592945E0;-1,426122308E0
8,802918452E1;6,227321148E0;-5,134997368E0;-3,290729284E0
8,812918452E1;6,747161865E0;-7,957930088E0;-1,477568030E0
8,822918452E1;8,344968796E0;-9,740582466E0;-2,809772015E0
8,832918452E1;6,875177860E0;-9,128020287E0;-1,136590719E0
8,842918452E1;4,171886444E0;-9,391230583E0;-1,028913736E0
8,852918452E1;5,212165833E0;-8,838488579E0;-1,969891191E0
8,862918452E1;1,071864891E1;-1,069591713E1;-3,500101328E0
8,872918452E1;6,311667919E0;-6,251847267E0;-1,652244091E0
8,882918452E1;5,258227825E0;-5,815755367E0;-2,413161755E0
8,892918452E1;2,574677229E0;-5,509474277E-1;-1,879562140E0
8,902918452E1;1,046740246E1;-7,975875854E0;-5,376074314E0
8,912918452E1;1,692323804E0;-3,818346739E0;-7,477571070E-2
8,922918452E1;1,343330669E1;-1,400758362E1;-4,128217220E0
8,932918452E1;2,377269268E0;-8,690134048E0;-2,397608280E0
8,942918452E1;2,560918331E0;-7,492526054E0;-1,482353687E0
8,952918452E1;3,930211067E-1;-4,101896286E0;-1,600200176E0
8,962918452E1;7,132406235E0;-8,925228119E0;-3,290729284E0
8,972918452E1;7,496713161E0;-5,433502197E0;-2,433500528E0
8,982918452E1;4,207180500E0;-5,083551884E0;-2,389233351E0
8,992918452E1;6,293123722E0;-6,491727829E0;-3,920639992E0
9,002918452E1;4,789234638E0;-2,388635159E0;-2,719442844E0
9,012918452E1;9,888937950E0;-5,006981373E0;-4,611567497E0
9,022918452E1;5,011168957E0;-6,010770321E0;-2,383251429E0
9,032918452E1;3,518645763E0;-1,764706731E0;-1,872383714E0
9,042918452E1;7,334001541E0;-6,725028038E0;-3,141776085E0
9,052918452E1;7,787441254E0;-7,230511665E0;-3,688536167E0
9,062918452E1;8,382058144E0;-5,922834396E0;-3,668795347E0
9,072918452E1;1,206580830E1;-8,026124954E0;-6,914061069E0
9,082918452E1;9,661021233E0;-6,816553593E0;-4,207778454E0
9,092918452E1;6,299703598E0;-4,776073933E0;-4,141975880E0
9,102918452E1;6,424728870E0;-4,300500393E0;-3,349353552E0
9,112918452E1;7,528418064E0;-4,969892502E0;-3,467798233E0
9,122918452E1;6,099903107E0;-3,900300980E0;-3,431307554E0
9,132918452E1;6,726224422E0;-4,834698200E0;-3,783650875E0
9,142918452E1;8,470592499E0;-6,009573936E0;-3,178864956E0
9,152918452E1;4,102494240E0;-1,514656782E0;-2,071586132E0
9,162918452E1;1,608515167E1;-6,433103561E0;-8,392227173E0
9,172918452E1;6,902096748E0;-8,691329956E0;-4,791627407E0
9,182918452E1;8,432307243E0;-5,248058319E0;-4,274179459E0
9,192918452E1;5,632106304E0;-6,058028698E0;-2,200798512E0
9,202918452E1;4,659423828E0;-6,803991318E0;-2,054238319E0
9,212918452E1;4,223930359E0;-9,966106415E0;-2,645265341E0
9,222918452E1;6,453442574E0;-9,757332802E0;-2,849253654E0
9,232918452E1;3,850649834E0;-7,950153351E0;-8,775677085E-1
9,242918452E1;3,890729666E0;-9,562915802E0;-1,694716692E0
9,252918452E1;5,088935375E0;-1,012762165E1;-2,178664923E0
9,262918452E1;6,415755749E0;-8,215756416E0;-2,066202402E0
9,272918452E1;4,481756687E0;-6,446264267E0;-2,132004976E0
9,282918452E1;9,762118340E0;-1,099083233E1;-3,616153240E0
9,292918452E1;3,337389469E0;-3,200400352E0;-1,365105271E0
9,302918452E1;6,200401783E0;-3,847060680E0;-2,493321180E0
9,312918452E1;4,501497746E0;-7,039684296E0;-2,965305567E0
9,322918452E1;4,931607246E0;-4,625924587E0;-1,770688772E0
9,332918452E1;7,159923553E0;-6,180660725E0;-2,490330219E0
9,342918452E1;7,225128174E0;-7,767700672E0;-3,046063185E0
9,352918452E1;6,513263226E0;-7,361518860E0;-2,279761791E0
9,362918452E1;6,601797581E0;-6,381059647E0;-1,862214208E0
9,372918452E1;8,111070633E0;-7,816154957E0;-2,911466837E0
9,382918452E1;6,775875568E0;-6,302694798E0;-2,620140791E0
9,392918452E1;6,957729816E0;-7,035496712E0;-2,863610506E0
9,402918452E1;6,391827583E0;-4,640281200E0;-2,620738983E0
9,412918452E1;7,003193855E0;-5,785246849E0;-3,031706333E0
9,422918452E1;7,168896675E0;-5,454439163E0;-2,985046148E0
9,432918452E1;6,820142746E0;-5,521438122E0;-2,757728100E0
9,442918452E1;7,659425259E0;-6,948757172E0;-3,259024382E0
9,452918452E1;7,597810268E0;-6,459424496E0;-3,201596737E0
9,462918452E1;7,406982422E0;-6,362515450E0;-4,100101471E0
9,472918452E1;9,375079155E0;-6,998407841E0;-4,485944271E0
9,482918452E1;2,519642353E0;-3,451646566E0;-1,119242787E0
9,492918452E1;4,805984497E0;-2,853441000E0;-3,533600807E0
9,502918452E1;7,007979393E0;-6,160321712E0;-2,303091764E0
9,512918452E1;7,432705402E0;-9,789037704E0;-3,224328518E0
9,522918452E1;7,402196884E0;-1,244327641E1;-2,692523718E0
9,532918452E1;7,052246571E0;-9,077771187E0;-2,887538671E0
9,542918452E1;4,825126648E0;-8,817551613E0;-1,430309772E0
9,552918452E1;8,609375954E0;-9,301499367E0;-1,594218135E0
9,562918452E1;6,949953556E0;-4,721039295E0;-1,544566989E0
9,572918452E1;7,227520943E0;-6,875775814E0;-3,210569859E0
9,582918452E1;3,522234917E0;-3,218346357E0;-1,299900889E0
9,592918452E1;4,488337040E0;-3,483949661E0;-3,216551781E0
9,602918452E1;9,515657425E0;-1,179541969E1;-2,675773859E0
9,612918452E1;5,967699528E0;-2,044667006E0;-2,153540373E0
9,622918452E1;5,450850010E0;-8,448458672E0;-1,983649969E0
9,632918452E1;6,745965004E0;-1,185763264E1;-3,811766386E0
9,642918452E1;5,788836002E0;-7,235895634E0;-2,925225735E0
9,652918452E1;8,292326927E0;-7,510472298E0;1,250249892E-1
9,662918452E1;8,126026154E0;-6,064010620E0;-2,145165443E0
9,672918452E1;6,905087948E0;-6,263213158E0;-2,469991207E0
9,682918452E1;2,696112871E0;-1,743769526E0;-1,936391711E0
9,692918452E1;7,150352478E0;-7,154539585E0;-2,049452543E0
9,702918452E1;6,955935478E0;-9,779465675E0;-2,345564365E0
9,712918452E1;6,214160442E0;-8,815158844E0;-2,779263496E0
9,722918452E1;7,409375191E0;-9,253045082E0;-1,490728498E0
9,732918452E1;7,682755470E0;-9,211171150E0;-2,307279348E0
9,742918452E1;8,344968796E0;-7,325626373E0;-2,823530674E0
9,752918452E1;5,853442192E0;-6,690930367E0;-1,902294040E0
9,762918452E1;3,274577856E0;-4,126422882E0;-1,941775560E0
9,772918452E1;5,274977684E0;-2,854637384E0;-3,093321562E0
9,782918452E1;6,033502102E0;-5,791827202E0;-1,895115495E0
9,792918452E1;7,986045361E0;-9,930811882E0;-1,954337835E0
9,802918452E1;7,052246571E0;-9,194420815E0;-3,389433384E0
9,812918452E1;6,536593437E0;-9,829715729E0;-2,815753937E0
9,822918452E1;7,717451096E0;-1,001456070E1;-1,465005636E0
9,832918452E1;7,060023308E0;-7,342376232E0;-2,452643156E0
9,842918452E1;4,155734539E0;-4,966303349E0;-2,471187592E0
9,852918452E1;6,576074600E0;-3,867399693E0;-6,514459848E-1
9,862918452E1;6,759125710E0;-4,052245140E0;-2,010569334E0
9,872918452E1;3,095714331E0;-8,183453560E0;-9,732806087E-1
9,882918452E1;6,211767673E0;-2,098026848E1;-3,906282902E0
9,892918452E1;7,852645874E0;-1,225065327E1;-2,814557552E0
9,902918452E1;4,113262177E0;-7,141379356E0;1,115653515E0
9,912918452E1;6,535995007E0;-5,697908878E0;-3,162115097E0
9,922918452E1;5,606383324E0;-5,008177757E0;-2,322832584E0
9,932918452E1;5,498108387E0;-4,846064091E0;-3,142374277E0
9,942918452E1;4,066602230E0;-3,299104214E0;-2,556132793E0
9,952918452E1;7,531409264E0;-6,522236347E0;-2,126022816E0
9,962918452E1;7,997411251E0;-1,035673428E1;-1,788634896E0
9,972918452E1;7,612166882E0;-9,374481201E0;-3,089133978E0
9,982918452E1;6,382256031E0;-8,031509399E0;-2,096710920E0
9,992918452E1;7,319644451E0;-9,008976936E0;-1,753939033E0
1,000291845E2;6,663413048E0;-7,327421188E0;-1,539183140E0
1,001291845E2;4,957928658E0;-5,806184292E0;-2,137987137E0
1,002291845E2;3,218346357E0;-1,956132531E0;-2,345564365E0
1,003291845E2;5,443073273E0;-3,585046530E0;-2,463410854E0
1,004291845E2;7,828119278E0;-1,315872955E1;-2,222932339E0
1,005291845E2;8,574081421E0;-7,532605648E0;-1,710269928E0
1,006291845E2;8,489734650E0;-1,057208824E1;-2,088934183E0
1,007291845E2;6,138786316E0;-9,485149384E0;-1,312463164E0
1,008291845E2;7,492526054E0;-6,571289062E0;-1,339980721E0
1,009291845E2;5,130809784E0;-8,439485550E0;-2,458625317E0
1,010291845E2;1,465603828E0;-2,880360365E0;-2,229512453E0
1,011291845E2;3,676572084E0;-9,457631707E-1;-2,571087837E0
1,012291845E2;7,168298244E0;-1,033878803E1;-1,384247899E0
1,013291845E2;6,075974941E0;-7,777870178E0;-1,528415442E0
1,014291845E2;6,489933014E0;-9,218947411E0;-2,542972326E0
1,015291845E2;7,352545738E0;-1,082213879E1;-2,494517565E0
1,016291845E2;6,627520561E0;-7,398009300E0;-1,947159410E0
1,017291845E2;7,709076405E0;-7,312466145E0;-1,925624013E0
1,018291845E2;6,324828625E0;-6,558726788E0;-1,746760488E0
1,019291845E2;2,944966555E0;-1,217946768E0;-1,240080357E0
1,020291845E2;5,749952793E0;-3,445066452E0;-2,001596212E0
1,021291845E2;7,325028419E0;-1,133898830E1;-1,807179332E0
1,022291845E2;8,032705307E0;-7,385447025E0;-1,621137381E0
1,023291845E2;8,021938324E0;-1,129053402E1;-2,026122570E0
1,024291845E2;5,826523304E0;-9,864411354E0;-1,468594909E0
1,025291845E2;8,368298531E0;-8,917451859E0;-2,126022816E0
1,026291845E2;7,992625713E0;-8,874381065E0;-3,385245800E0
1,027291845E2;8,662018180E-1;-2,292324066E0;-5,455635786E-1
1,028291845E2;6,056233883E0;-4,856233597E0;-2,828316450E0
1,029291845E2;6,501897335E0;-8,019545555E0;-1,888535261E0
1,030291845E2;6,531807423E0;-7,383054256E0;-1,718046665E0
1,031291845E2;6,373282909E0;-1,061456108E1;-1,190429211E0
1,032291845E2;6,702894211E0;-9,629316330E0;-1,938186288E0
1,033291845E2;7,913064480E0;-8,889336586E0;-1,598405480E0
1,034291845E2;7,651648521E0;-8,388039589E0;-2,004587173E0
1,035291845E2;5,949155331E0;-5,977271080E0;-2,513660192E0
1,036291845E2;3,707080364E0;-2,970091105E0;-1,642074585E0
1,037291845E2;6,495915413E0;-3,515654564E0;-2,480160713E0
1,038291845E2;6,939784050E0;-7,767102242E0;-2,563909531E0
1,039291845E2;6,776473522E0;-6,277570248E0;-1,319043517E0
1,040291845E2;9,605388641E0;-1,394596863E1;-1,767099500E0
1,041291845E2;4,167100430E0;-6,938587666E0;2,632104978E-2
1,042291845E2;7,915457249E0;-1,031127071E1;-1,996212244E0
1,043291845E2;7,835297585E0;-9,908679008E0;-2,506481647E0
1,044291845E2;4,244269371E0;-5,043471813E0;-2,499901533E0
1,045291845E2;7,637889862E0;-4,974080086E0;-3,813561201E0
1,046291845E2;3,612564087E0;-2,851048231E0;-2,196611166E0
1,047291845E2;6,564708710E0;-3,507279873E0;-2,667997360E0
1,048291845E2;4,704887390E0;-7,716254711E0;-1,881955028E0
1,049291845E2;7,610372543E0;-9,863214493E0;-1,825125456E0
1,050291845E2;6,546762943E0;-8,922835350E0;-1,565504193E0
1,051291845E2;4,800002098E0;-8,392227173E0;-6,340979934E-1
1,052291845E2;8,349754333E0;-8,642875671E0;-1,519442320E0
1,053291845E2;5,285745144E0;-6,491727829E0;-2,041675806E0
1,054291845E2;6,413960934E0;-6,781259537E0;-1,707877159E0
1,055291845E2;2,739781857E0;-6,859624386E0;-2,310868502E0
1,056291845E2;6,167500615E-1;-2,356930375E-1;-1,503290772E0
1,057291845E2;1,476670647E1;-5,356333256E0;-1,848455548E0
1,058291845E2;6,303293228E0;-8,841479301E0;-1,300499082E0
1,059291845E2;4,712664127E0;-7,671987534E0;-8,225327730E-1
1,060291845E2;4,386641979E0;-1,011924744E1;-1,368096352E0
1,061291845E2;4,710271358E0;-1,054756260E1;-1,886740685E0
1,062291845E2;6,121438503E0;-5,873781204E0;-1,884347796E0
1,063291845E2;6,591030121E0;-8,416155815E0;-2,472383976E0
1,064291845E2;3,037090063E0;-1,635494232E0;-1,655235052E0
1,065291845E2;5,148756027E0;-1,433300734E0;-1,278365493E0
1,066291845E2;5,635695457E0;-7,097112179E0;-9,194421172E-1
1,067291845E2;9,788438797E0;-1,112841988E1;-2,441875458E0
1,068291845E2;8,915059090E0;-1,136112213E1;-4,030709743E0
1,069291845E2;6,053243160E0;-8,803792953E0;-1,149751306E0
1,070291845E2;7,582854748E0;-1,003011417E1;-1,434497118E0
1,071291845E2;6,573681831E0;-6,846463680E0;-1,333998680E0
1,072291845E2;6,735795975E0;-6,392425537E0;-2,295315027E0
1,073291845E2;3,055634499E0;-3,930809498E0;-1,152144074E0
1,074291845E2;4,281357765E0;-2,753540754E0;-8,757730722E-1
1,075291845E2;5,556134224E0;-9,509675026E0;-1,983051777E0
1,076291845E2;5,956333637E0;-8,286943436E0;-1,796411633E0
1,077291845E2;8,041080475E0;-1,069232845E1;-2,663809776E0
1,078291845E2;6,463014126E0;-9,772287369E0;-1,947757602E0
1,079291845E2;9,484550476E0;-9,158528328E0;-1,610967875E0
1,080291845E2;7,609176159E0;-9,857831001E0;-2,855833769E0
1,081291845E2;4,622933388E0;-6,171687603E0;-3,057429075E0
1,082291845E2;5,187639713E0;-4,550550461E0;-1,758126378E0
1,083291845E2;5,569294930E0;-3,035295486E0;-1,666600943E0
1,084291845E2;6,239284992E0;-6,842874527E0;-2,246860504E0
1,085291845E2;6,288337708E0;-9,658628464E0;-2,767299414E0
1,086291845E2;5,857629776E0;-9,147162437E0;-2,397608280E0
1,087291845E2;6,289534092E0;-1,011386299E1;-1,544566989E0
1,088291845E2;3,213560820E0;-7,667201996E0;-1,182054400E0
1,089291845E2;6,454041004E0;-8,436494827E0;-2,788834810E0
1,090291845E2;8,662615776E0;-6,932007313E0;-3,376870871E0
1,091291845E2;3,656831264E0;-3,353540897E0;-4,097708762E-1
1,092291845E2;5,473581791E0;-4,441078663E0;-1,205982566E0
1,093291845E2;6,595815659E0;-8,861220360E0;-1,350748420E0
1,094291845E2;7,710272789E0;-1,002114105E1;-2,147558212E0
1,095291845E2;6,538387775E0;-8,641080856E0;-2,406581402E0
1,096291845E2;4,557130814E0;-9,765707016E0;-1,692921996E0
1,097291845E2;7,288537979E0;-8,963513374E0;-1,070189953E0
1,098291845E2;7,415955544E0;-6,821339130E0;-1,730608940E0
1,099291845E2;5,933003902E0;-5,292325497E0;-1,843669891E0
1,100291845E2;3,898506403E0;-4,232903481E0;-2,186441660E0
1,101291845E2;5,298307419E0;-3,535993576E0;-2,045863390E0
1,102291845E2;6,315257072E0;-1,008036327E1;-2,464607239E0
1,103291845E2;6,425326824E0;-8,714659691E0;-2,150549412E0
1,104291845E2;6,678966045E0;-1,012223816E1;-2,225325108E0
1,105291845E2;6,819544315E0;-6,322435856E0;-2,011167526E0
1,106291845E2;1,054636574E1;-1,393280792E1;-2,832503796E0
1,107291845E2;2,935993433E0;-4,834099770E0;-1,307079315E0
1,108291845E2;3,354737282E0;-3,855435371E0;-4,283152521E-1
1,109291845E2;6,492924213E0;-5,055436134E0;-2,411965132E0
1,110291845E2;4,981258392E0;-5,875576019E0;-1,148554921E0
1,111291845E2;5,103890896E0;-6,185446739E0;-8,614161611E-1
1,112291845E2;5,070391178E0;-1,075035381E1;-1,521835208E0
1,113291845E2;1,960918188E0;-6,301498413E0;-1,269392371E0
1,114291845E2;1,605224991E1;-1,930469513E1;-2,538784742E0
1,115291845E2;6,885945320E0;-1,454776382E1;-4,209573269E0
1,116291845E2;5,078765869E0;-6,001199245E0;-2,368894339E0
1,117291845E2;1,325623751E0;-2,237887383E0;7,758727670E-1
1,118291845E2;5,220541000E0;-3,483949661E0;-3,001197815E0
1,119291845E2;5,889334679E0;-4,612165451E0;-2,632703066E0
1,120291845E2;7,835297585E0;-1,075155067E1;-1,828116536E0
1,121291845E2;3,839283943E0;-7,913064480E0;-1,223928809E0
1,122291845E2;5,693721294E0;-1,098126125E1;-1,328016520E0
1,123291845E2;5,722435474E0;-1,038425159E1;-1,552343726E0
1,124291845E2;7,566105366E0;-8,924630165E0;-1,532004714E0
1,125291845E2;9,126225471E0;-9,451051712E0;-3,210569859E0
1,126291845E2;4,264009953E0;-6,017949104E0;-1,747358680E0
1,127291845E2;6,318248272E0;-3,625724554E0;-2,507079840E0
1,128291845E2;6,965506554E0;-7,342974663E0;-2,345564365E0
1,129291845E2;7,770691395E0;-9,787840843E0;-1,972882271E0
1,130291845E2;7,707880020E0;-1,159143066E1;-2,467000246E0
1,131291845E2;5,064409256E0;-7,121638298E0;-4,516452849E-1
1,132291845E2;5,408377171E0;-9,991230965E0;-7,441678643E-1
1,133291845E2;7,635497093E0;-8,989834785E0;-1,464407444E0
1,134291845E2;5,784050465E0;-6,884150982E0;-2,152942181E0
1,135291845E2;3,576073408E0;-3,994817495E0;-1,671386600E0
1,136291845E2;3,910470486E0;-2,804986238E0;-1,761715651E0
1,137291845E2;6,588038921E0;-6,452246189E0;-1,833500385E0
1,138291845E2;7,265207767E0;-8,614161491E0;-8,931210637E-1
1,139291845E2;6,887740135E0;-1,142871952E1;-3,060420275E0
1,140291845E2;5,729613781E0;-9,114261627E0;-1,248455167E0
1,141291845E2;8,181658745E0;-9,218947411E0;-1,526620865E0
1,142291845E2;8,292924881E0;-1,003310490E1;-2,158924341E0
1,143291845E2;4,066602230E0;-5,465207100E0;-1,414158225E0
1,144291845E2;5,233701229E0;-4,593621254E0;-2,411366940E0
1,145291845E2;5,675177097E0;-5,152345181E0;-1,847259045E0
1,146291845E2;7,512865067E0;-9,769894600E0;-9,780662656E-1
1,147291845E2;6,623332977E0;-9,084351540E0;-2,356930375E-1
1,148291845E2;5,027918816E0;-8,462815285E0;-1,100100160E0
1,149291845E2;7,310073376E0;-1,055653572E1;-2,255833626E0
1,150291845E2;7,197610378E0;-8,649456024E0;-7,196413875E-1
1,151291845E2;5,599205017E0;-7,474579811E0;-2,017747641E0
1,152291845E2;6,327221394E0;-4,660620213E0;-1,248455167E0
1,153291845E2;3,961916208E0;-3,647259951E0;-1,807777524E0
1,154291845E2;6,906284332E0;-4,517649174E0;-2,263011932E0
1,155291845E2;6,897311211E0;-9,548559189E0;-1,447059512E0
1,156291845E2;7,370491982E0;-1,085563850E1;-1,389033556E0
1,157291845E2;6,958926678E0;-1,080838013E1;-7,794619799E-1
1,158291845E2;4,990829945E0;-8,654839516E0;-1,508076429E0
1,159291845E2;8,679964066E0;-1,080419254E1;-8,213363886E-1
1,160291845E2;6,180660725E0;-6,380461693E0;-1,137188911E0
1,161291845E2;3,224328518E0;-4,340580463E0;-2,117648125E0
1,162291845E2;4,170690060E0;-1,581655741E0;-1,811366796E0
1,163291845E2;7,197610378E0;-3,410968781E0;-1,695913076E0
1,164291845E2;7,741977692E0;-1,095972633E1;-1,254437327E0
1,165291845E2;1,046381378E1;-1,184985638E1;-7,453642488E-1
1,166291845E2;7,249056339E0;-8,879764557E0;-4,780859470E0
1,167291845E2;7,816154957E0;-1,118405342E1;-1,818545222E0
1,168291845E2;3,397209883E0;-4,655236244E0;-1,722832322E0
1,169291845E2;6,206982136E0;-4,383052826E0;-8,506484628E-1
1,170291845E2;7,533204079E0;-5,588437080E0;-2,475374937E0
1,171291845E2;5,362913609E0;-2,871387243E0;-1,771885157E0
1,172291845E2;5,705685616E0;-6,374479294E0;-1,325025558E0
1,173291845E2;7,949554920E0;-1,053799057E1;-1,183848977E0
1,174291845E2;7,392027378E0;-8,932407379E0;-2,170290232E0
1,175291845E2;5,333601475E0;-1,149512005E1;-2,260020971E0
1,176291845E2;5,930012703E0;-9,367900848E0;-9,020941257E-1
1,177291845E2;6,058028698E0;-7,214958668E0;-1,847857237E0
1,178291845E2;8,718847275E0;-9,939187050E0;-3,071786165E0
1,179291845E2;3,169891834E0;-7,573283911E-1;-1,175474167E0
1,180291845E2;5,827121258E0;-4,637888432E0;-2,093121529E0
1,181291845E2;6,647859573E0;-7,476374149E0;-1,162911773E0
1,182291845E2;5,878567219E0;-9,340981483E0;-1,403988719E0
1,183291845E2;6,564110756E0;-8,069195747E0;-1,645663738E0
1,184291845E2;8,205587387E0;-1,005523872E1;-8,291130662E-1
1,185291845E2;5,815755367E0;-6,190232277E0;-1,232901812E0
1,186291845E2;1,281476212E1;-1,117208862E1;-2,541775942E0
1,187291845E2;2,949752092E0;-4,542175770E0;1,890329868E-1
1,188291845E2;-2,033899277E-1;-1,249053478E0;9,314061999E-1
1,189291845E2;6,753143787E0;-4,216751575E0;-9,834501147E-1
1,190291845E2;8,899505615E0;-1,036630630E1;-4,546363056E-1
1,191291845E2;8,357531548E0;-8,980263710E0;-1,791625977E0
1,192291845E2;5,437689304E0;-9,555138588E0;-2,622533560E0
1,193291845E2;4,850251675E0;-8,300702095E0;-1,186840057E0
1,194291845E2;8,310273170E0;-8,379066467E0;-1,767099500E0
1,195291845E2;9,275776863E0;-8,726025581E0;-2,454437733E0
1,196291845E2;3,116053343E0;-3,696312666E0;-1,091725349E0
1,197291845E2;1,804188251E0;-2,515454769E0;-2,201396823E-1
1,198291845E2;8,799007416E0;-1,137488079E1;-1,207777262E0
1,199291845E2;6,811169624E0;-9,756135941E0;-1,811366796E0
1,200291845E2;6,697510719E0;-1,032144070E1;-1,668395638E0
1,201291845E2;8,056633949E0;-9,078967094E0;-1,531406522E0
1,202291845E2;5,846263885E0;-9,852447510E0;-5,180460811E-1
1,203291845E2;8,691927910E0;-9,421140671E0;-1,932802439E0
1,204291845E2;3,543770313E0;-4,673182487E0;-1,168893814E0
1,205291845E2;1,877169371E0;-2,342573404E0;-6,783652306E-1
1,206291845E2;5,191228867E0;-4,035495281E0;-1,624128342E0
1,207291845E2;6,897311211E0;-8,623732567E0;-9,613165259E-1
1,208291845E2;8,367700577E0;-1,079342461E1;-1,115055323E0
1,209291845E2;6,050850391E0;-8,050053596E0;-2,931207791E-2
1,210291845E2;5,602794170E0;-1,076112175E1;-8,404789567E-1
1,211291845E2;5,828317642E0;-8,558527946E0;-1,318445325E0
1,212291845E2;8,235497475E0;-7,915457249E0;-1,668395638E0
1,213291845E2;5,521438122E0;-6,291328907E0;-1,263410330E0
1,214291845E2;4,733601570E0;-4,137788773E0;-1,422533035E0
1,215291845E2;5,499304771E0;-7,979465485E0;-1,474576950E0
1,216291845E2;7,771289825E0;-9,498309135E0;-1,943570137E0
1,217291845E2;8,895318031E0;-9,652647018E0;-2,702693224E0
1,218291845E2;6,305685997E0;-8,318648338E0;-2,030908108E0
1,219291845E2;6,014359951E0;-1,062891865E1;-8,081758618E-1
1,220291845E2;8,542376518E0;-8,940183640E0;-2,157727718E0
1,221291845E2;6,302694798E0;-6,510272026E0;-1,824527264E0
1,222291845E2;2,893520832E0;-2,249253273E0;-1,148554921E0
1,223291845E2;6,958328247E0;-5,438287735E0;-2,096112728E0
1,224291845E2;7,079763889E0;-9,390034676E0;-8,560323119E-1
1,225291845E2;7,539186001E0;-8,655437469E0;-1,532004714E0
1,226291845E2;8,057231903E0;-1,241575813E1;-2,822334290E0
1,227291845E2;4,511068821E0;-7,873582840E0;-9,242277741E-1
1,228291845E2;7,004390240E0;-9,025727272E0;-8,727820516E-1
1,229291845E2;6,552744865E0;-7,298109055E0;-5,766702294E-1
1,230291845E2;5,909075737E0;-5,098506927E0;-2,041077614E0
1,231291845E2;2,953939438E0;-3,827319860E0;-1,156331539E0
1,232291845E2;5,119443893E0;-4,590032101E0;-2,123630047E0
1,233291845E2;7,325626373E0;-9,583852768E0;-1,680359721E0
1,234291845E2;8,274380684E0;-1,013958549E1;-1,319043517E0
1,235291845E2;6,336194515E0;-8,996415138E0;-5,844469070E-1
1,236291845E2;4,509274483E0;-8,435297966E0;-6,993024349E-1
1,237291845E2;1,044287586E1;-1,136590767E1;-2,260619164E0
1,238291845E2;6,568298340E0;-7,871788502E0;-1,843071699E0
1,239291845E2;2,802593470E0;-3,197409153E0;-8,608179688E-1
1,240291845E2;5,819942951E0;-2,938386202E0;-2,107478619E0
1,241291845E2;5,944967747E0;-6,052644730E0;-1,110269666E0
1,242291845E2;7,390232563E0;-9,849455833E0;-1,807777524E0
1,243291845E2;7,168298244E0;-9,159725189E0;-2,337787628E0
1,244291845E2;6,010172367E0;-9,168698311E0;-1,483550072E0
1,245291845E2;4,476971149E0;-9,337391853E0;-6,999006271E-1
1,246291845E2;6,318248272E0;-7,632505894E0;-1,628913999E0
1,247291845E2;6,555736065E0;-6,545566559E0;-1,656431437E0
1,248291845E2;3,101696253E0;-3,767499208E0;-1,495514154E0
1,249291845E2;3,908675671E0;-3,120240688E0;-2,160718918E0
1,250291845E2;6,073582172E0;-9,029315948E0;-1,581655741E0
1,251291845E2;8,325227737E0;-1,046859932E1;-1,414756417E0
1,252291845E2;6,285944939E0;-8,593224525E0;-7,489534616E-1
1,253291845E2;6,728617191E0;-8,849854469E0;-1,864008784E0
1,254291845E2;6,897311211E0;-9,398408890E0;-1,305882931E0
1,255291845E2;8,015357971E0;-8,529814720E0;-1,684547186E0
1,256291845E2;5,833103180E0;-5,574080467E0;-1,420140266E0
1,257291845E2;3,470191002E0;-3,363112211E0;-1,328614831E0
1,258291845E2;6,145965099E0;-3,732205153E0;-1,928016901E0
1,259291845E2;6,830312252E0;-8,821739197E0;-1,068993568E0
1,260291845E2;8,019545555E0;-8,754739761E0;-1,328614831E0
1,261291845E2;5,803193092E0;-9,292527199E0;-2,442473650E0
1,262291845E2;4,747360229E0;-8,992227554E0;-2,060220242E0
1,263291845E2;6,181259155E0;-9,515657425E0;-1,121037364E0
1,264291845E2;7,589435101E0;-7,846065521E0;-2,011765718E0
1,265291845E2;4,159324169E0;-4,348356724E0;-9,469595551E-1
1,266291845E2;2,284547329E0;-2,893520832E0;-1,584646821E0
1,267291845E2;8,346763611E0;-7,182057381E0;-1,515853167E0
1,268291845E2;6,012565136E0;-1,019222832E1;-7,866404653E-1
1,269291845E2;6,979863644E0;-9,107681274E0;-2,072782516E0
1,270291845E2;7,183851719E0;-1,055653572E1;-1,511665702E0
1,271291845E2;5,239683151E0;-8,793025017E0;-2,428714931E-1
1,272291845E2;8,060821533E0;-8,499904633E0;-1,923231244E0
1,273291845E2;7,838887215E0;-6,738188744E0;-2,070987940E0
1,274291845E2;5,821139336E0;-5,998806477E0;-1,744367719E0
1,275291845E2;4,516452789E0;-2,698505640E0;-2,413161755E0
1,276291845E2;5,945566177E0;-4,563711166E0;-1,429113269E0
1,277291845E2;7,165307522E0;-1,131625652E1;-1,537388563E0
1,278291845E2;7,036095142E0;-8,472386360E0;-6,634100676E-1
1,279291845E2;7,992027760E0;-1,016889763E1;-1,246062398E0
1,280291845E2;5,279763222E0;-9,464211464E0;-1,115653515E0
1,281291845E2;7,813164234E0;-8,197212219E0;-1,350150228E0
1,282291845E2;6,409175396E0;-8,283951759E0;-2,084746838E0
1,283291845E2;2,211566210E0;-2,511267424E0;-1,336989641E0
1,284291845E2;4,152145386E0;-3,581457376E0;-1,563709617E0
1,285291845E2;6,622735023E0;-1,005045319E1;-1,677368641E0
1,286291845E2;7,177271366E0;-8,445467949E0;-1,538584948E0
1,287291845E2;8,474779129E0;-1,231406307E1;-1,515853167E0
1,288291845E2;4,994419098E0;-8,415556908E0;-1,797608018E0
1,289291845E2;8,506484032E0;-9,696315765E0;-2,477767944E0
1,290291845E2;6,582654953E0;-6,537789822E0;-1,916650891E0
1,291291845E2;5,512465000E0;-5,602794170E0;-1,267597795E0
1,292291845E2;4,183252335E0;-2,787040234E0;-1,139581800E0
1,293291845E2;6,755536556E0;-4,415954113E0;-2,883949518E0
1,294291845E2;6,457031727E0;-7,981259823E0;-1,523629785E0
1,295291845E2;7,792226791E0;-1,159202957E1;-2,000998020E0
1,296291845E2;6,807580471E0;-8,140382767E0;-1,482951880E0
1,297291845E2;6,209972858E0;-8,358727455E0;-2,033301115E0
1,298291845E2;8,045268059E0;-9,594620705E0;-1,648654819E0
1,299291845E2;6,603592396E0;-7,143772125E0;-8,644071817E-1
1,300291845E2;4,632504463E0;-5,400600910E0;-2,845664263E0
1,301291845E2;2,660818815E0;-2,426322222E0;-2,458625317E0
1,302291845E2;8,588438988E0;-9,708279610E0;-1,699502230E0
1,303291845E2;6,554539204E0;-1,013360405E1;-1,758126378E0
1,304291845E2;8,833105087E0;-9,690931320E0;-2,172683001E0
1,305291845E2;5,937789440E0;-9,509077072E0;-2,327020019E-1
1,306291845E2;5,679962635E0;-8,676973343E0;-1,706082582E0
1,307291845E2;7,892127514E0;-7,585247993E0;-2,426322222E0
1,308291845E2;7,763513088E0;-7,108478069E0;-2,078166485E0
1,309291845E2;2,952743053E0;-2,618346214E0;-1,440479279E0
1,310291845E2;5,979065418E0;-4,341178417E0;-2,401197433E0
1,311291845E2;7,012764931E0;-8,431110382E0;-1,977667928E0
1,312291845E2;7,992625713E0;-7,504489899E0;-2,196012974E0
1,313291845E2;7,731808186E0;-1,079103184E1;-2,186441660E0
1,314291845E2;5,116453171E0;-1,026042366E1;-1,526022673E0
1,315291845E2;9,344570160E0;-1,027537823E1;-1,360319614E0
1,316291845E2;7,380063057E0;-7,785048485E0;-1,479960799E0
1,317291845E2;4,615755081E0;-5,736194134E0;-3,784847260E0
1,318291845E2;2,557927370E0;-2,748156786E0;-6,287141442E-1
1,319291845E2;8,186444283E0;-8,654839516E0;-4,022335052E0
1,320291845E2;6,577271461E0;-8,381459236E0;-1,436291814E0
1,321291845E2;6,879963398E0;-9,370891571E0;-2,024926186E0
1,322291845E2;7,311269760E0;-1,023709393E1;-1,298704505E0
1,323291845E2;5,449055195E0;-9,309874535E0;-6,855437160E-1
1,324291845E2;8,914461136E0;-8,258229256E0;-1,283151150E0
1,325291845E2;7,658827305E0;-7,232306480E0;-1,269990563E0
1,326291845E2;5,793622017E0;-6,798008919E0;-2,200200319E0
1,327291845E2;4,402793884E0;-2,660220623E0;-1,549352646E0
1,328291845E2;6,136393547E0;-4,572684288E0;-2,047059774E0
1,329291845E2;6,649653912E0;-8,812167168E0;-1,288534999E0
1,330291845E2;6,753143787E0;-9,998409271E0;-1,077368379E0
1,331291845E2;6,967301369E0;-9,895518303E0;-1,859223247E0
1,332291845E2;5,809175014E0;-1,016052341E1;-1,073779106E0
1,333291845E2;8,151748657E0;-8,074580193E0;-1,395613790E0
1,334291845E2;6,381059647E0;-6,504290104E0;-1,690529227E0
1,335291845E2;6,257829189E0;-5,642275810E0;-1,516451359E0
1,336291845E2;3,644268990E0;-4,012165546E0;-1,156331539E0
1,337291845E2;6,198009014E0;-4,171886444E0;-2,117648125E0
1,338291845E2;6,974479675E0;-7,272984505E0;-1,649851203E0
1,339291845E2;7,586444378E0;-9,900303841E0;-1,228116274E0
1,340291845E2;6,246463299E0;-9,161520004E0;-1,022931695E0
1,341291845E2;5,807380676E0;-9,810572624E0;-1,704287887E0
1,342291845E2;8,766105652E0;-8,974281311E0;-1,573879123E0
1,343291845E2;6,026323795E0;-5,877370834E0;-1,186840057E0
1,344291845E2;4,399802685E0;-5,548357487E0;-1,660618901E0
1,345291845E2;3,112463951E0;-3,457030535E0;-1,512862086E0
1,346291845E2;6,103492260E0;-5,191228867E0;-2,290529490E0
1,347291845E2;6,676573277E0;-7,659425259E0;-1,402194023E0
1,348291845E2;7,872984886E0;-1,022453117E1;-1,069591761E0
1,349291845E2;5,808577061E0;-9,285946846E0;-1,756929994E0
1,350291845E2;4,996811867E0;-9,616155624E0;-1,410568953E0
1,351291845E2;8,830113411E0;-8,702695847E0;-1,150349498E0
1,352291845E2;6,631109715E0;-6,053841114E0;-1,359123230E0
1,353291845E2;7,098906517E0;-6,887740135E0;-1,395015597E0
1,354291845E2;3,409772158E0;-2,696711063E0;-1,508674622E0
1,355291845E2;6,220142365E0;-4,916652203E0;-2,269592285E0
1,356291845E2;6,930810928E0;-1,012164021E1;-1,381855130E0
1,357291845E2;7,712067604E0;-1,058345413E1;-1,444666624E0
1,358291845E2;6,670591354E0;-9,346963882E0;-1,056431174E0
1,359291845E2;5,255835056E0;-9,809974670E0;-1,608574986E0
1,360291845E2;8,124231339E0;-8,026124954E0;-1,436291814E0
1,361291845E2;5,956932068E0;-6,443273067E0;-5,611169338E-1
1,362291845E2;4,218546391E0;-4,399802685E0;-1,253839016E0
1,363291845E2;2,405385017E0;-3,294916868E0;-1,645065546E0
1,364291845E2;6,745367050E0;-6,012565136E0;-1,390828133E0
1,365291845E2;8,193622589E0;-1,030768204E1;-1,119242787E0
1,366291845E2;7,537989616E0;-9,872786522E0;-2,030309916E0
1,367291845E2;5,956333637E0;-9,558728218E0;-1,241276741E0
1,368291845E2;5,075176716E0;-9,266205788E0;-7,555337548E-1
1,369291845E2;5,836094379E0;-7,220342159E0;-2,094916344E0
1,370291845E2;8,189435959E0;-7,613961697E0;-2,368894339E0
1,371291845E2;2,632703066E0;-2,893520832E0;-7,244270444E-1
1,372291845E2;5,299503803E0;-3,658625841E0;-1,800000787E0
1,373291845E2;6,601199627E0;-8,668000221E0;-1,077368379E0
1,374291845E2;7,560122967E0;-9,955936432E0;-9,738788009E-1
1,375291845E2;7,024130821E0;-1,040459061E1;-1,087537885E0
1,376291845E2;5,950950146E0;-9,382855415E0;-1,391426325E0
1,377291845E2;8,012366295E0;-9,706484795E0;-1,176072359E0
1,378291845E2;7,969893932E0;-8,208578110E0;-8,961120844E-1
1,379291845E2;6,801598549E0;-4,335794449E0;-2,813361168E0
1,380291845E2;4,621138573E0;-3,685544968E0;-2,088335991E0
1,381291845E2;7,411767960E0;-6,561717987E0;-2,320439816E0
1,382291845E2;5,199603558E0;-8,200801849E0;7,178467698E-3
1,383291845E2;7,257431030E0;-8,641678810E0;-1,786840320E0
1,384291845E2;7,487142086E0;-1,236491108E1;-1,867598057E0
1,385291845E2;5,304289818E0;-8,083553314E0;-1,746760458E-1
1,386291845E2;6,355337143E0;-6,428916454E0;-1,019342422E0
1,387291845E2;8,126624107E0;-9,089137077E0;-2,273181438E0
1,388291845E2;6,444469452E0;-6,297909260E0;-1,697707653E0
1,389291845E2;4,080958843E0;-3,433102369E0;-1,777269006E0
1,390291845E2;5,530411243E0;-5,347360611E0;-1,426122308E0
1,391291845E2;8,596215248E0;-8,255836487E0;-1,205982566E0
1,392291845E2;6,333203316E0;-1,185643578E1;-2,799004316E0
1,393291845E2;8,054241180E0;-1,117747307E1;-9,272187948E-1
1,394291845E2;4,614558697E0;-8,362317085E0;-1,922034740E0
1,395291845E2;8,786444664E0;-8,114061356E0;-2,536391914E-1
1,396291845E2;9,528220177E0;-7,079165936E0;-1,946561217E0
1,397291845E2;4,266402721E0;-5,243870735E0;-1,530210137E0
1,398291845E2;2,561516523E0;-1,226321578E0;-1,440479279E0
1,399291845E2;6,624529362E0;-4,375874519E0;-2,006979942E0
1,400291845E2;7,097710133E0;-1,038963604E1;-1,094716311E0
1,401291845E2;7,033702374E0;-7,413562775E0;-1,348355532E0
1,402291845E2;7,557730198E0;-1,221595764E1;-2,304886341E0
1,403291845E2;5,230710506E0;-9,020941734E0;-1,045065284E0
1,404291845E2;8,664410591E0;-8,257631302E0;-1,454237938E0
1,405291845E2;6,957729816E0;-8,706285477E0;-2,200200319E0
1,406291845E2;1,802991867E0;-4,998606682E0;1,196411345E-2
1,407291845E2;4,369294167E0;-1,795215130E0;-2,234896421E0
1,408291845E2;1,148734283E1;-7,402794838E0;-2,397608280E0
1,409291845E2;8,586644173E0;-1,523031616E1;-1,545165181E0
1,410291845E2;6,914659023E0;-7,130013466E0;-6,747759581E-1
1,411291845E2;6,702296257E0;-9,209974289E0;-1,025324464E0
1,412291845E2;7,384849072E0;-1,006421185E1;-1,001396298E0
1,413291845E2;5,665007591E0;-6,073582172E0;-7,202396393E-1
1,414291845E2;6,410970211E0;-6,141777515E0;-1,703091502E0
1,415291845E2;2,580659151E0;-2,364706993E0;-5,294120312E-1
1,416291845E2;5,770890236E0;-3,731606960E0;-1,817348838E0
1,417291845E2;5,981458187E0;-9,930213928E0;-1,295713425E0
1,418291845E2;7,704290867E0;-9,929615974E0;-1,495514154E0
1,419291845E2;7,326822758E0;-8,824729919E0;-1,194018483E0
1,420291845E2;5,224728107E0;-9,760921478E0;-9,732806087E-1
1,421291845E2;8,395816803E0;-8,839086533E0;-1,822134495E0
1,422291845E2;6,531807423E0;-7,685746193E0;-1,431506157E0
1,423291845E2;2,422134638E0;-3,038286448E0;-9,810572863E-1
1,424291845E2;2,530410051E0;-2,350948334E0;-1,709671736E0
1,425291845E2;7,129415035E0;-7,697710514E0;-1,332203984E0
1,426291845E2;7,567301750E0;-1,077547836E1;-1,124028444E0
1,427291845E2;7,197610378E0;-9,592825890E0;-1,683350682E0
1,428291845E2;6,729215622E0;-9,466006279E0;-1,387837172E0
1,429291845E2;7,660023689E0;-8,976674080E0;-1,099501967E0
1,430291845E2;7,805387497E0;-8,611170769E0;-1,834696770E0
1,431291845E2;4,948955536E0;-5,685945034E0;-1,222732425E0
1,432291845E2;2,560320139E0;-2,982653379E0;-8,171489239E-1
1,433291845E2;6,589833736E0;-4,478765965E0;-1,788036704E0
1,434291845E2;7,010970116E0;-8,784649849E0;-1,114457130E0
1,435291845E2;7,475776196E0;-1,002293587E1;-1,225723386E0
1,436291845E2;6,995417118E0;-1,010249710E1;-1,521237016E0
1,437291845E2;5,214558601E0;-8,823533058E0;-8,889335990E-1
1,438291845E2;7,222734928E0;-7,892127514E0;-1,817947030E0
1,439291845E2;7,015157700E0;-7,143173695E0;-1,470987678E0
1,440291845E2;2,877967358E0;-3,547957659E0;-9,774680734E-1
1,441291845E2;5,325226784E0;-3,626322746E0;-1,421934843E0
1,442291845E2;6,642475605E0;-8,892327309E0;-1,497308731E0
1,443291845E2;7,677969456E0;-1,037946606E1;-1,060618639E0
1,444291845E2;7,824530125E0;-9,349356651E0;-1,298704505E0
1,445291845E2;6,211767673E0;-9,412766457E0;-9,302098155E-1
1,446291845E2;9,098110199E0;-9,192625999E0;-8,979067206E-1
1,447291845E2;6,735795975E0;-7,301100254E0;-1,747358680E0
1,448291845E2;2,785245657E0;-4,072584152E0;-6,915257573E-1
1,449291845E2;2,570489645E0;-2,883949518E0;-4,869394004E-1
1,450291845E2;6,149554253E0;-6,897909641E0;-1,165902853E0
1,451291845E2;6,957729816E0;-9,786046028E0;-1,499701619E0
1,452291845E2;6,932007313E0;-9,839286804E0;-2,245664120E0
1,453291845E2;7,015157700E0;-8,813364029E0;-9,882357717E-1
1,454291845E2;6,845865726E0;-9,936196327E0;-9,517452121E-1
1,455291845E2;8,372486115E0;-9,704092026E0;-1,989033818E0
1,456291845E2;5,281557560E0;-6,211767673E0;-1,091127157E0
1,457291845E2;2,800200701E0;-2,075175524E0;-1,257428288E0
1,458291845E2;6,634698868E0;-6,582056999E0;-1,001396298E0
1,459291845E2;7,237092018E0;-6,591030121E0;-2,467598438E0
1,460291845E2;4,896313190E0;-8,678169250E0;-1,862214208E0
1,461291845E2;7,220342159E0;-8,257032394E0;-7,920243144E-1
1,462291845E2;7,901698589E0;-7,447062492E0;-1,759921074E0
1,463291845E2;9,992427826E0;-1,013420200E1;-1,061216831E0
1,464291845E2;4,441677094E0;-5,419743061E0;-2,037488461E0
1,465291845E2;3,197409153E0;-4,585844517E0;-2,635095835E0
1,466291845E2;3,512663603E0;-3,089133978E0;-1,744965911E0
1,467291845E2;5,775675774E0;-5,039284706E0;-4,797609448E-1
1,468291845E2;8,819346428E0;-1,419003677E1;-1,176072359E0
1,469291845E2;6,329015732E0;-7,810173035E0;-1,025922656E0
1,470291845E2;5,986244202E0;-7,776673794E0;-6,963114142E-1
1,471291845E2;7,690532207E0;-1,038425159E1;-1,063011408E0
1,472291845E2;8,937790871E0;-9,269196510E0;-1,771885157E0
1,473291845E2;5,062614441E0;-5,112265587E0;-8,368897438E-1
1,474291845E2;3,592225075E0;-4,147359848E0;-1,467398524E0
1,475291845E2;6,135197163E0;-4,953142643E0;-2,015953064E0
1,476291845E2;6,647859573E0;-7,481758118E0;-1,570888042E0
1,477291845E2;8,082955360E0;-9,709476471E0;-1,392024517E0
1,478291845E2;6,635895252E0;-9,707681656E0;-1,811964989E0
1,479291845E2;4,451846600E0;-9,432506561E0;-7,274180651E-1
1,480291845E2;7,256234646E0;-8,885746956E0;-1,029511929E0
1,481291845E2;6,905087948E0;-7,060621262E0;-1,907677889E0
1,482291845E2;5,672784328E0;-6,204588890E0;-1,291526079E0
1,483291845E2;3,847060680E0;-2,606382132E0;-1,560718536E0
1,484291845E2;5,779862881E0;-4,049852371E0;-1,608574986E0
1,485291845E2;7,431509018E0;-9,699904442E0;-9,128618240E-1
1,486291845E2;7,734799385E0;-1,018086243E1;-1,262812138E0
1,487291845E2;7,304090977E0;-9,385847092E0;-5,156532526E-1
1,488291845E2;6,643074036E0;-9,372088432E0;-7,866404653E-1
1,489291845E2;8,505886078E0;-8,774480820E0;-2,383849621E0
1,490291845E2;5,859424591E0;-6,545566559E0;-1,102493048E0
1,491291845E2;3,924229145E0;-3,932005882E0;-1,018146038E0
1,492291845E2;4,503292084E0;-3,933800459E0;-1,543370605E0
1,493291845E2;6,116054535E0;-6,609574318E0;-1,275374413E0
1,494291845E2;8,370093346E0;-1,055115128E1;-1,016351461E0
1,495291845E2;7,661220074E0;-9,433703423E0;-1,695913076E0
1,496291845E2;5,766104221E0;-9,552147865E0;-1,478764415E0
1,497291845E2;6,107679844E0;-9,485747337E0;-1,365105271E0
1,498291845E2;7,144968510E0;-7,365108013E0;-1,549950838E0
1,499291845E2;6,121438503E0;-6,942774773E0;-1,496112347E0
1,500291845E2;2,827120066E0;-3,236890793E0;-1,347757339E0
1,501291845E2;4,938786030E0;-3,003590584E0;-2,204986095E0
1,502291845E2;5,721239090E0;-9,348159790E0;-1,430907965E0
1,503291845E2;8,219346046E0;-1,086700439E1;-1,700100541E0
1,504291845E2;6,546762943E0;-9,378069878E0;-6,526423693E-1
1,505291845E2;6,614359856E0;-9,475577354E0;-1,325025558E0
1,506291845E2;8,015955925E0;-8,317451477E0;-1,670190215E0
1,507291845E2;6,999604225E0;-7,779066563E0;-1,384247899E0
1,508291845E2;5,821737289E0;-6,021538258E0;-1,433300734E0
1,509291845E2;3,660420418E0;-3,318246841E0;-1,132403374E0
1,510291845E2;6,452246189E0;-4,503890514E0;-1,613958836E0
1,511291845E2;5,972485542E0;-7,556533813E0;-1,238285661E0
1,512291845E2;7,721638680E0;-9,940981865E0;-1,259222865E0
1,513291845E2;6,743572235E0;-8,887541771E0;-6,556333899E-1
1,514291845E2;5,985047817E0;-9,211171150E0;-9,661021233E-1
1,515291845E2;8,457431793E0;-8,950951576E0;-1,920838356E0
1,516291845E2;7,000801086E0;-7,084549427E0;-1,102493048E0
1,517291845E2;3,567100286E0;-3,595814228E0;-1,492523074E0
1,518291845E2;3,421736479E0;-2,915654421E0;-1,336391449E0
1,519291845E2;6,501298904E0;-5,736194134E0;-1,509871125E0
1,520291845E2;6,938587666E0;-8,544769287E0;-1,758724689E0
1,521291845E2;7,060621262E0;-9,577870369E0;-1,113260746E0
1,522291845E2;6,500102520E0;-9,130413055E0;-1,335195065E0
1,523291845E2;5,157729149E0;-9,251849174E0;-1,144367456E0
1,524291845E2;7,759923935E0;-8,635697365E0;-1,245464206E0
1,525291845E2;7,349554539E0;-7,211967468E0;-1,932802439E0
1,526291845E2;6,591628075E0;-6,133402824E0;-1,325025558E0
1,527291845E2;4,183252335E0;-2,468196630E0;-1,283749342E0
1,528291845E2;5,790630817E0;-4,535595417E0;-1,619940877E0
1,529291845E2;7,514659405E0;-1,044706345E1;-1,207179070E0
1,530291845E2;7,496115208E0;-9,081359863E0;-9,726824164E-1
1,531291845E2;6,430112839E0;-9,534201622E0;-5,653043389E-1
1,532291845E2;5,967101574E0;-9,332008362E0;-1,096511006E0
1,533291845E2;9,346963882E0;-8,161917686E0;-1,753939033E0
1,534291845E2;6,013761520E0;-7,426125050E0;-8,865407705E-1
1,535291845E2;4,737788677E0;-4,117449760E0;-9,511470199E-1
1,536291845E2;3,528217077E0;-2,964108944E0;-1,354935765E0
1,537291845E2;6,347560406E0;-5,516054630E0;-1,368694544E0
1,538291845E2;6,724429607E0;-9,345767021E0;-1,048654556E0
1,539291845E2;8,042277336E0;-9,247661591E0;-1,266401410E0
1,540291845E2;5,218147755E0;-9,260223389E0;-7,639086246E-1
1,541291845E2;4,212564468E0;-8,843274117E0;-9,164510965E-1
1,542291845E2;8,216354370E0;-9,555138588E0;-2,007578135E0
1,543291845E2;8,081160545E0;-7,859225750E0;-2,335993052E0
1,544291845E2;3,431905985E0;-2,371885538E0;-8,781659007E-1
1,545291845E2;6,081358910E0;-3,931407690E0;-1,811964989E0
1,546291845E2;6,278168201E0;-7,727620602E0;-1,099501967E0
1,547291845E2;7,746763229E0;-1,024068260E1;0,000000000E0
1,548291845E2;5,651248932E0;-9,940981865E0;-1,740180254E0
1,549291845E2;6,601797581E0;-8,958129883E0;-1,953739643E0
1,550291845E2;9,174081802E0;-8,526225090E0;-1,471585870E0
1,551291845E2;6,928418159E0;-7,968697548E0;-1,080957651E0
1,552291845E2;4,891527653E0;-4,787439823E0;-6,107679605E-1
1,553291845E2;3,952344894E0;-3,196212769E0;-9,134600163E-1
1,554291845E2;7,022934437E0;-5,495117188E0;-1,992024899E0
1,555291845E2;6,309275150E0;-8,228917122E0;-1,481157184E0
1,556291845E2;7,317849636E0;-8,962915421E0;-1,119840980E0
1,557291845E2;6,147161484E0;-8,821739197E0;-1,174277663E0
1,558291845E2;5,903093338E0;-9,316454887E0;-1,316052437E0
1,559291845E2;7,993822098E0;-9,618548393E0;-1,222732425E0
1,560291845E2;6,929016113E0;-6,238687038E0;-1,640279889E0
1,561291845E2;7,647460938E0;-6,977470875E0;-1,949552298E0
1,562291845E2;3,104089260E0;-1,911865234E0;-5,090730190E-1
1,563291845E2;6,226722717E0;-7,339983463E0;-1,530210137E0
1,564291845E2;6,859624386E0;-9,361320496E0;-8,985049129E-1
1,565291845E2;6,549753666E0;-9,415757179E0;-2,120639086E0
1,566291845E2;6,374479294E0;-9,105886459E0;-5,276173949E-1
1,567291845E2;5,834897995E0;-9,660423279E0;-6,047859192E-1
1,568291845E2;8,766105652E0;-8,245068550E0;-1,950150490E0
1,569291845E2;6,867401123E0;-6,714260101E0;-1,320239902E0
1,570291845E2;5,185844898E0;-7,004390240E0;-1,799402595E0
1,571291845E2;2,651247501E0;-1,417747438E-1;-1,719243050E0
1,572291845E2;8,864809990E0;-5,046463013E0;-2,277369022E0
1,573291845E2;8,795417786E0;-1,047577763E1;-7,896314859E-1
1,574291845E2;5,510072231E0;-8,532805443E0;-1,439282775E0
1,575291845E2;5,352146149E0;-9,380462646E0;-2,461616278E0
1,576291845E2;5,612963676E0;-9,793823242E0;-1,103689432E0
1,577291845E2;7,422535896E0;-6,861418724E0;-1,282552958E0
1,578291845E2;6,236892223E0;-6,798607349E0;-2,303091764E0
1,579291845E2;2,467598438E0;-3,163909674E0;-9,798609018E-1
1,580291845E2;5,023731232E0;-3,825525284E0;-1,765903115E0
1,581291845E2;5,825326920E0;-7,773682594E0;-1,368096352E0
1,582291845E2;8,525029182E0;-9,661619186E0;-1,097707391E0
1,583291845E2;7,620542049E0;-9,765707016E0;-4,360919297E-1
1,584291845E2;6,774080753E0;-8,474779129E0;-5,222335458E-1
1,585291845E2;7,243073940E0;-9,209376335E0;-1,131805062E0
1,586291845E2;8,527421951E0;-9,180662155E0;-9,158528447E-1
1,587291845E2;5,486742496E0;-5,317450047E0;-5,132604837E-1
1,588291845E2;5,466403484E0;-4,684548378E0;-2,699702263E0
1,589291845E2;7,463811874E0;-4,831109047E0;-2,254039049E0
1,590291845E2;5,615954876E0;-6,145366669E0;-2,399402857E0
1,591291845E2;7,660023689E0;-1,153400326E1;-1,353739381E0
1,592291845E2;8,179265976E0;-9,225527763E0;3,248256743E-1
1,593291845E2;4,718048096E0;-7,928019524E0;-1,016949639E-1
1,594291845E2;8,405985832E0;-9,558728218E0;-2,267199516E0
1,595291845E2;6,963113785E0;-7,188637257E0;-1,295713425E0
1,596291845E2;4,071387768E0;-4,181457520E0;-1,307079315E0
1,597291845E2;4,106083870E0;-1,122832060E0;-1,794617064E-2
1,598291845E2;6,711867332E0;-8,460422516E0;-1,907677889E0
1,599291845E2;7,996813297E0;-1,110269737E1;-7,226324677E-1
1,600291845E2;7,423732281E0;-8,275577545E0;-1,431506157E0
1,601291845E2;5,946164131E0;-8,014759064E0;-9,505487680E-1
1,602291845E2;7,339385033E0;-9,641280174E0;-1,258624673E0
1,603291845E2;8,781061172E0;-8,495717049E0;-1,575673699E0
1,604291845E2;3,608376503E0;-4,232903481E0;-1,205384374E0
1,605291845E2;5,473581791E0;-5,019543648E0;-1,389631748E0
1,606291845E2;4,966303349E0;-5,350949764E0;-1,529013634E0
1,607291845E2;6,893722057E0;-7,131209850E0;-5,084748268E-1
1,608291845E2;1,075334454E1;-1,068634605E1;-1,908874273E0
1,609291845E2;8,882756233E0;-1,115832996E1;-1,362114310E0
1,610291845E2;4,671388149E0;-8,812167168E0;-1,557129383E0
1,611291845E2;6,858428001E0;-7,765905857E0;-1,578066587E0
1,612291845E2;9,558728218E0;-1,082752228E1;-1,849651933E0
1,613291845E2;4,692325115E0;4,384847581E-1;-1,158126116E0
1,614291845E2;8,873783112E0;-5,266004562E0;-1,988435626E0
1,615291845E2;6,559923172E0;-7,771289825E0;-7,196413875E-1
1,616291845E2;4,039682865E0;-5,935994625E0;-8,291130662E-1
1,617291845E2;5,894718647E0;-9,885348320E0;-2,266003132E0
1,618291845E2;4,716253281E0;-1,097228813E1;-1,597209096E0
1,619291845E2;5,961119175E0;-7,493124008E0;-1,420140266E0
1,620291845E2;4,691727161E0;-5,669793129E0;-1,950748682E0
1,621291845E2;5,668596745E0;-6,530611038E0;-2,712862730E0
1,622291845E2;-4,803591371E-1;-5,406582832E0;-1,113858938E0
1,623291845E2;9,468997002E0;-4,593023300E0;-2,044667006E0
1,624291845E2;1,219023514E1;-1,584228039E1;-2,008176327E0
1,625291845E2;7,188039303E0;-7,740781307E0;-2,234298229E0
1,626291845E2;7,227520943E0;-8,925228119E0;-1,333400369E0
1,627291845E2;4,774279594E0;-1,131924725E1;-2,572284266E-2
1,628291845E2;8,338388443E0;-7,133602619E0;-1,075573802E0
1,629291845E2;7,308876991E0;-6,782455921E0;-1,978266120E0
1,630291845E2;4,255635262E0;-3,136392355E0;-8,171489239E-1
1,631291845E2;5,277370453E0;-2,508276224E0;-1,375274777E0
1,632291845E2;6,675376892E0;-4,996213913E0;-1,849053741E0
1,633291845E2;8,166703224E0;-1,046800041E1;-1,222134113E0
1,634291845E2;7,171289444E0;-8,380861282E0;-2,737389088E0
1,635291845E2;5,634499073E0;-1,006421185E1;-9,924231768E-1
1,636291845E2;1,065643597E1;-9,077771187E0;-1,707278967E0
1,637291845E2;6,525227547E0;-7,270591736E0;-1,815554142E0
1,638291845E2;1,749751568E0;-3,340978622E0;-7,244270444E-1
1,639291845E2;1,950150430E-1;-1,312463164E0;-8,703892231E-1
1,640291845E2;6,608377934E0;-1,082154083E1;-1,807777524E0
1,641291845E2;7,725826263E0;-8,184051514E0;-1,633101463E0
1,642291845E2;8,177471161E0;-1,027896786E1;-1,448255897E0
1,643291845E2;6,231508255E0;-8,854640007E0;-1,753939033E0
1,644291845E2;7,911868095E0;-9,775876999E0;-8,327022791E-1
1,645291845E2;5,354538918E0;-7,178467751E0;-1,320239902E0
1,646291845E2;6,903293133E0;-6,459424496E0;-1,597209096E0
1,647291845E2;2,391027927E0;-3,112463951E0;-8,063812256E-1
1,648291845E2;6,346364021E0;-4,999204636E0;-1,828116536E0
1,649291845E2;6,507879257E0;-9,428917885E0;-1,363310695E0
1,650291845E2;8,029116631E0;-1,034177971E1;-1,885544300E0
1,651291845E2;7,604390144E0;-1,054636574E1;-4,534398913E-1
1,652291845E2;5,669195175E0;-8,255836487E0;-7,746763229E-1
1,653291845E2;8,432307243E0;-9,547362328E0;-2,121237278E0
1,654291845E2;6,030511379E0;-8,301898003E0;-1,622931957E0
1,655291845E2;6,628118753E-1;-1,618744493E0;-2,811566554E-2
1,656291845E2;5,391029358E0;-3,862015724E0;-1,683948994E0
1,657291845E2;6,501897335E0;-6,116652966E0;-1,746760488E0
1,658291845E2;8,191229820E0;-8,664410591E0;-1,431506157E0
1,659291845E2;8,740981102E0;-1,051585770E1;-2,804986238E0
1,660291845E2;3,748954773E0;-8,418548584E0;9,152546525E-2
1,661291845E2;9,954142570E0;-1,086999512E1;-1,978864312E0
1,662291845E2;8,650651932E0;-9,352945328E0;-1,412363529E0
1,663291845E2;2,115255117E0;-2,395813704E0;-2,231307179E-1
1,664291845E2;5,868995667E0;-4,262813568E0;-2,047059774E0
1,665291845E2;6,103492260E0;-7,388438225E0;-1,357926875E-1
1,666291845E2;8,670392990E0;-1,095852947E1;-1,165304661E0
1,667291845E2;6,630511761E0;-1,053499985E1;-1,113260746E0
1,668291845E2;5,474778175E0;-8,678169250E0;-3,816552162E-1
1,669291845E2;1,043031406E1;-1,052363396E1;-1,399203062E0
1,670291845E2;8,244470596E0;-9,807581902E0;-1,910668850E0
1,671291845E2;1,634297848E0;-1,694118381E0;-1,040279627E0
1,672291845E2;4,406980991E0;-3,020938635E0;-7,100701332E-1
1,673291845E2;5,326423168E0;-5,733801365E0;-3,798605800E-1
1,674291845E2;9,497711182E0;-1,128036404E1;-2,377269268E0
1,675291845E2;6,811169624E0;-7,776673794E0;-8,057830334E-1
1,676291845E2;5,233701229E0;-7,015756130E0;3,583251834E-1
1,677291845E2;7,110272408E0;-9,829116821E0;-7,453642488E-1
1,678291845E2;1,052183914E1;-8,218149185E0;-2,126621008E0
1,679291845E2;3,190230846E0;-5,401198864E0;-2,697907388E-1
1,680291845E2;2,001596212E0;-4,409373760E0;-1,213161111E0
1,681291845E2;6,312864304E0;-5,333003521E0;-1,424925923E0
1,682291845E2;9,106484413E0;-1,297208977E1;-2,140978098E0
1,683291845E2;6,710072994E0;-8,813961983E0;-1,476371527E0
1,684291845E2;7,073183537E0;-8,096115112E0;-1,379462242E0
1,685291845E2;7,906484127E0;-1,025145054E1;-1,067198873E0
1,686291845E2;6,637091637E0;-6,380461693E0;-1,462014675E0
1,687291845E2;4,417150497E0;-4,314857483E0;-3,864408433E-1
1,688291845E2;2,502892494E0;-2,127219439E0;-1,028913736E0
1,689291845E2;6,123233318E0;-4,202992916E0;-1,506281853E0
1,690291845E2;7,938189030E0;-1,247856998E1;-1,295713425E0
1,691291845E2;7,701299667E0;-8,257032394E0;-1,557129383E0
1,692291845E2;6,720242500E0;-9,451051712E0;-1,320239902E0
1,693291845E2;5,665606022E0;-9,085547447E0;-1,071386337E0
1,694291845E2;6,480959892E0;-9,809376717E0;-1,909472466E0
1,695291845E2;-4,480560422E-1;-2,171486616E0;-8,315058798E-2
1,696291845E2;7,487142086E0;-7,022934437E0;-3,138785124E0
1,697291845E2;3,107678413E0;-3,949353695E0;-3,499503136E-1
1,698291845E2;7,326224804E0;-1,087837029E1;-9,002995491E-1
1,699291845E2;8,169694901E0;-1,057507992E1;-2,247458696E0
1,700291845E2;7,147361279E0;-8,685347557E0;-4,103690982E-1
1,701291845E2;3,461816072E0;-9,142974854E0;-1,147358418E0
1,702291845E2;7,255636692E0;-8,033304214E0;-1,343569875E0
1,703291845E2;6,562914371E0;-5,870790482E0;-1,740778446E0
1,704291845E2;1,072582722E0;-1,533201098E0;-1,034297585E0
1,705291845E2;4,104887009E0;-2,708076954E0;-1,269392371E0
1,706291845E2;7,481160164E0;-9,620343208E0;-6,538388133E-1
1,707291845E2;7,875377655E0;-9,363115311E0;-1,542772412E0
1,708291845E2;5,081159115E0;-5,413163185E0;1,070788130E-1
1,709291845E2;5,547161102E0;-9,272188187E0;-1,079162955E0
1,710291845E2;8,082356453E0;-7,721040249E0;-1,268794179E0
1,711291845E2;3,701098442E0;-4,262215137E0;-2,231307179E-1
1,712291845E2;4,720440865E0;-4,055236340E0;-2,700898647E0
1,713291845E2;6,598208427E0;-6,425326824E0;-1,506880045E0
1,714291845E2;7,508677483E0;-1,086401272E1;-1,103689432E0
1,715291845E2;7,805985451E0;-8,755936623E0;-1,982453585E0
1,716291845E2;7,639086246E0;-8,280961037E0;-5,108676553E-1
1,717291845E2;8,268997192E0;-1,018983555E1;-1,200598717E0
1,718291845E2;6,574280262E0;-8,062017441E0;-1,688734531E0
1,719291845E2;5,745765209E0;-5,983851433E0;-1,027717352E0
1,720291845E2;5,032105923E0;-4,824528694E0;-2,041077614E0
1,721291845E2;7,094120979E0;-5,772086620E0;-1,769492388E0
1,722291845E2;5,892325878E0;-9,701101303E0;-5,940182209E-1
1,723291845E2;8,777471542E0;-9,686145782E0;-1,458425403E0
1,724291845E2;7,123433113E0;-8,775078773E0;-5,156532526E-1
1,725291845E2;5,660222054E0;-9,297312737E0;-1,025922656E0
1,726291845E2;8,477770805E0;-8,697910309E0;-1,714457393E0
1,727291845E2;5,906084538E0;-6,496513367E0;-1,818545222E0
1,728291845E2;3,516252756E0;-3,475574970E0;-1,250848055E0
1,729291845E2;5,114658356E0;-3,681357622E0;-1,435693622E0
1,730291845E2;8,312665939E0;-1,098963642E1;-1,240678549E0
1,731291845E2;8,117650986E0;-8,310273170E0;-1,581655741E0
1,732291845E2;7,857431412E0;-8,883354187E0;-1,138385415E0
1,733291845E2;5,096114159E0;-1,003250694E1;-1,152144074E0
1,734291845E2;8,949754715E0;-9,960124016E0;-2,166102648E0
1,735291845E2;5,170291424E0;-5,325226784E0;-1,435693622E0
1,736291845E2;3,279961586E0;-2,589034081E0;-1,374078393E0
1,737291845E2;3,416352510E0;-2,495115757E0;-8,709874153E-1
1,738291845E2;7,774280548E0;-1,167817116E1;-1,018744230E0
1,739291845E2;8,364709854E0;-8,507082939E0;-1,735394597E0
1,740291845E2;7,421339512E0;-9,456435204E0;-1,161117196E0
1,741291845E2;4,447061062E0;-9,125627518E0;-6,376872063E-1
1,742291845E2;8,139784813E0;-9,551549911E0;-1,168295622E0
1,743291845E2;7,798209190E0;-7,427321434E0;-1,538584948E0
1,744291845E2;4,029513359E0;-2,669193745E0;-1,182054400E0
1,745291845E2;3,272184849E0;-2,297109842E0;-1,167697430E0
1,746291845E2;7,579265594E0;-1,148734283E1;-1,441077471E0
1,747291845E2;7,729415417E0;-8,922835350E0;-1,063011408E0
1,748291845E2;6,961319447E0;-9,443872452E0;-3,170489967E-1
1,749291845E2;6,509075642E0;-1,013001442E1;-2,117049932E0
1,750291845E2;8,286344528E0;-6,926623344E0;-1,141974568E0
1,751291845E2;7,659425259E0;-8,063214302E0;-8,063812256E-1
1,752291845E2;1,233500123E0;-2,555534601E0;-1,071386337E0
1,753291845E2;4,806582451E0;-3,329014540E0;-1,877767563E0
1,754291845E2;6,030511379E0;-6,921837807E0;-1,374676585E0
1,755291845E2;8,615358353E0;-1,047517967E1;-1,121037364E0
1,756291845E2;6,408577442E0;-9,126225471E0;-1,622931957E0
1,757291845E2;4,630710125E0;-7,874181271E0;-1,321436286E0
1,758291845E2;8,986245155E0;-9,591031075E0;-1,246660590E0
1,759291845E2;1,099442196E1;-1,126720333E1;-2,149951220E0
1,760291845E2;2,572284266E-2;1,381256819E0;5,168496966E-1
1,761291845E2;7,907680511E0;-6,763313293E0;-4,074976921E0
1,762291845E2;3,677170277E0;-3,652045488E0;-2,243271172E-1
1,763291845E2;8,103293419E0;-1,226560879E1;-1,864008784E0
1,764291845E2;5,049454212E0;-8,097909927E0;-3,182454109E0
1,765291845E2;5,632704735E0;-8,351549149E0;-2,746362209E0
1,766291845E2;6,798008919E0;-9,120243073E0;-1,816750646E0
1,767291845E2;8,434102058E0;-8,818149567E0;-8,590233326E-1
1,768291845E2;5,565705299E0;-7,740781307E0;-1,866999865E0
1,769291845E2;3,610171080E0;-3,920639992E0;1,339980662E-1
1,770291845E2;5,811567783E0;-2,724826813E0;-4,881358147E-1
1,771291845E2;4,892126083E0;-5,946164131E0;-1,935195327E0
1,772291845E2;8,188239098E0;-8,868398666E0;-1,656431437E0
1,773291845E2;7,692924976E0;-1,139940739E1;-1,643270969E0
1,774291845E2;6,625127792E0;-9,239884377E0;-9,702895880E-1
1,775291845E2;6,027520180E0;-8,415556908E0;-7,986045480E-1
1,776291845E2;1,099561787E1;-1,027478027E1;-1,770688772E0
1,777291845E2;3,869194269E0;-5,398207664E0;-1,421934843E0
1,778291845E2;3,430111170E0;-3,650250912E0;-6,616154313E-1
1,779291845E2;4,599005222E0;-3,587439299E0;-1,682752490E0
1,780291845E2;6,872186661E0;-5,588437080E0;-1,551745534E0
1,781291845E2;8,223533630E0;-1,225543976E1;-1,557727575E0
1,782291845E2;7,392625332E0;-8,278568268E0;-2,201396942E0
1,783291845E2;8,309076309E0;-1,022273636E1;-1,244866014E0
1,784291845E2;4,256233215E0;-1,000020409E1;-3,846462369E-1
1,785291845E2;6,157928944E0;-5,952744484E0;-1,015154958E0
1,786291845E2;7,080960274E0;-5,562714577E0;-1,430309772E0
1,787291845E2;3,485146284E0;-6,262016773E0;-1,753939033E0
1,788291845E2;5,804987907E0;-3,079562664E0;-1,186840057E0
1,789291845E2;1,020179939E1;-1,197069359E1;-3,159722328E0
1,790291845E2;7,097112179E0;-7,828717709E0;-1,722832322E0
1,791291845E2;7,393822193E0;-9,165108681E0;-7,220342159E-1
1,792291845E2;5,146363258E0;-1,105005455E1;-3,720839322E-1
1,793291845E2;7,121040344E0;-7,460222721E0;-1,096511006E0
1,794291845E2;7,935796261E0;-7,663014412E0;-2,087737799E0
1,795291845E2;5,946762562E0;-6,524031162E0;-5,330012441E-1
1,796291845E2;3,879961967E0;-2,574079037E0;-1,639083505E0
1,797291845E2;7,229913712E0;-6,187241077E0;-1,835893154E0
1,798291845E2;8,253443718E0;-9,606584549E0;-7,986045480E-1
1,799291845E2;8,082356453E0;-1,024845982E1;-2,327019930E0
1,800291845E2;6,307480335E0;-9,111269951E0;-1,590030670E0
1,801291845E2;5,249254704E0;-9,227322578E0;-4,073780477E-1
1,802291845E2;7,695317745E0;-8,259425163E0;-1,077368379E0
1,803291845E2;6,801598549E0;-7,176074982E0;-1,899302959E0
1,804291845E2;2,915056229E0;-3,058625460E0;-1,498505235E0
1,805291845E2;4,381258488E0;-2,129612207E0;-2,082952023E0
1,806291845E2;7,842476368E0;-9,458827972E0;-9,894321561E-1
1,807291845E2;7,039684296E0;-8,982057571E0;-6,885347366E-1
1,808291845E2;7,094120979E0;-9,787242889E0;-8,739784956E-1
1,809291845E2;6,507281303E0;-9,716055870E0;-9,044869542E-1
1,810291845E2;7,353742123E0;-9,088538170E0;-1,281954765E0
1,811291845E2;8,341978073E0;-7,732406139E0;-2,023729801E0
1,812291845E2;3,692723513E0;-5,051846981E0;-7,100701332E-1
1,813291845E2;5,386243820E0;-5,044668198E0;-2,124228239E0
1,814291845E2;4,395615101E0;-5,225326538E0;-8,051848412E-1
1,815291845E2;8,487939835E0;-1,068634605E1;-7,028916478E-1
1,816291845E2;6,573083878E0;-8,349754333E0;-8,243274093E-1
1,817291845E2;8,237292290E0;-1,048475075E1;-1,877169371E0
1,818291845E2;5,800800323E0;-1,109850979E1;-1,135992527E0
1,819291845E2;5,833701611E0;-5,886941910E0;-4,193421602E-1
1,820291845E2;7,022934437E0;-7,146762848E0;-2,006979942E0
1,821291845E2;2,420938253E0;-2,739183664E0;-1,354337573E0
1,822291845E2;4,047459602E0;-1,802393675E0;-1,079761267E0
1,823291845E2;6,484549522E0;-1,124746323E1;-1,618744493E0
1,824291845E2;8,745766640E0;-8,489734650E0;-2,117648125E0
1,825291845E2;7,419544697E0;-8,623732567E0;-8,362914920E-1
1,826291845E2;4,916652203E0;-8,598010063E0;-1,040877849E-1
1,827291845E2;8,259425163E0;-9,093922615E0;-1,462612867E0
1,828291845E2;8,027919769E0;-7,600800991E0;-1,006780148E0
1,829291845E2;1,895713687E0;-1,526620865E0;-9,499505758E-1
1,830291845E2;4,737788677E0;-3,950550079E0;-1,771885157E0
1,831291845E2;6,343372822E0;-6,591628075E0;-1,408774376E0
1,832291845E2;8,306085587E0;-1,058465099E1;-1,219741344E0
1,833291845E2;7,710272789E0;-9,919445992E0;-2,370688915E0
1,834291845E2;7,780262947E0;-9,332606316E0;-1,627119422E0
1,835291845E2;6,787241459E0;-8,608778000E0;-5,365904570E-1
1,836291845E2;7,529614449E0;-7,667799950E0;-1,925025821E0
1,837291845E2;6,385845661E0;-5,900102615E0;-6,544370055E-1
1,838291845E2;3,026322365E0;-2,940778971E0;-1,773081541E0
1,839291845E2;7,040282249E0;-5,391627789E0;-2,073380709E0
1,840291845E2;8,383852005E0;-1,020897770E1;-1,405185103E0
1,841291845E2;7,319644451E0;-1,076471043E1;-1,722832322E0
1,842291845E2;6,568298340E0;-8,740981102E0;-1,152742267E0
1,843291845E2;4,789832592E0;-7,916653633E0;-1,730010748E0
1,844291845E2;7,326224804E0;-7,825726509E0;-1,512862086E0
1,845291845E2;6,674778938E0;-7,213762283E0;-1,935793519E0
1,846291845E2;3,152543783E0;-4,209573269E0;-1,223330617E0
1,847291845E2;5,565107346E0;-3,037090063E0;-1,324427366E0
1,848291845E2;6,203392506E0;-8,397610664E0;-8,596215248E-1
1,849291845E2;7,925028801E0;-1,018684387E1;-1,283749342E0
1,850291845E2;7,348956585E0;-9,600603104E0;-9,571290575E-3
1,851291845E2;6,083751678E0;-9,891928673E0;-1,540379524E0
1,852291845E2;7,138388157E0;-8,682954788E0;-1,186241865E0
1,853291845E2;6,600003242E0;-7,316653252E0;-1,177866936E0
1,854291845E2;4,959125042E0;-3,882952929E0;-1,118046403E0
1,855291845E2;2,468794823E0;-2,069791555E0;-8,859425783E-1
1,856291845E2;6,123831272E0;-6,067001820E0;-1,139581800E0
1,857291845E2;5,927619934E0;-8,666803360E0;-1,084546804E0
1,858291845E2;8,428717613E0;-1,032861900E1;-2,678166628E0
1,859291845E2;5,554937840E0;-9,126225471E0;-1,436291814E0
1,860291845E2;6,153741837E0;-8,459226608E0;-5,276173949E-1
1,861291845E2;8,088936806E0;-9,139386177E0;-1,772483349E0
1,862291845E2;4,938187599E0;-4,750350952E0;-6,053841114E-1
1,863291845E2;3,887140274E0;-2,780459881E0;-9,296116233E-1
1,864291845E2;6,420541286E0;-5,993422508E0;-1,859821439E0
1,865291845E2;7,956733704E0;-8,641678810E0;-6,957131624E-1
1,866291845E2;9,330811501E0;-1,068335533E1;-1,634896040E0
1,867291845E2;6,674778938E0;-8,971290588E0;-1,752144337E0
1,868291845E2;4,849653244E0;-9,340981483E0;-1,320838094E0
1,869291845E2;6,361319065E0;-6,937989235E0;-1,302891970E0
1,870291845E2;7,071987152E0;-7,713263988E0;-2,428116798E0
1,871291845E2;2,078166485E0;-9,499505758E-1;-3,487538993E-1
1,872291845E2;5,297111034E0;-3,460021496E0;-6,664010882E-1
1,873291845E2;6,128018856E0;-1,182413292E1;-1,479960799E0
1,874291845E2;9,990034103E0;-8,228917122E0;-1,916650891E0
1,875291845E2;8,620741844E0;-1,007258701E1;-4,223332107E-1
1,876291845E2;4,201198578E0;-9,795618057E0;-8,422735929E-1
1,877291845E2;6,963113785E0;-8,476573944E0;-1,881955028E0
1,878291845E2;5,333601475E0;-5,305486202E0;-4,235295951E-1
1,879291845E2;2,406581402E0;-2,336591244E0;-2,086541414E0
1,880291845E2;5,199603558E0;-4,734797955E0;-1,623530149E0
1,881291845E2;6,946363926E0;-9,774680138E0;-9,002995491E-1
1,882291845E2;1,019402313E1;-1,292004585E1;-1,673779488E0
1,883291845E2;5,712265968E0;-7,165307522E0;-1,899901152E0
1,884291845E2;5,536991596E0;-8,883354187E0;-1,386640668E0
1,885291845E2;7,420741081E0;-9,244071960E0;-1,436291814E0
1,886291845E2;7,465606689E0;-5,498706341E0;-1,297508121E0
1,887291845E2;5,343770981E0;-6,288936138E0;-1,172483087E0
1,888291845E2;3,188436270E0;-3,284149170E0;-2,293520451E0
1,889291845E2;5,986842155E0;-4,867599487E0;-2,313261271E0
1,890291845E2;5,689534187E0;-7,983054638E0;-5,276173949E-1
1,891291845E2;8,800203323E0;-1,069172955E1;-1,438684583E0
1,892291845E2;6,745965004E0;-1,210708427E1;-2,059023857E0
1,893291845E2;4,811367989E0;-7,627122402E0;-1,493121386E0
1,894291845E2;1,488874054E1;-1,340219975E1;-1,658226132E0
1,895291845E2;3,836292982E0;-9,270991325E0;-2,272583246E0
1,896291845E2;7,062416077E0;-5,895915031E0;-2,781058073E0
1,897291845E2;6,164509296E0;-4,466801643E0;-2,388635159E0
1,898291845E2;4,998008251E0;-3,415156126E0;-1,496112347E0
1,899291845E2;5,216951370E0;-5,000999451E0;-8,315058947E-1
1,900291845E2;7,463811874E0;-9,753145218E0;-1,348953724E0
1,901291845E2;7,170093060E0;-9,334401131E0;-2,088934183E0
1,902291845E2;7,567899704E0;-8,168498039E0;-1,249053478E0
1,903291845E2;4,040280819E0;-8,876175880E0;-8,476574421E-1
1,904291845E2;8,685347557E0;-8,906085968E0;-2,035693884E0
1,905291845E2;7,814360619E0;-7,903493404E0;-1,232303619E0
1,906291845E2;3,538984776E0;-4,721637249E0;-6,598208547E-1
1,907291845E2;4,055236340E0;-3,486940861E0;-1,774278045E0
1,908291845E2;6,363711834E0;-5,320441246E0;-1,745564103E0
1,909291845E2;7,298109055E0;-9,446864128E0;-1,009172916E0
1,910291845E2;7,590631485E0;-9,411569595E0;-9,086744189E-1
1,911291845E2;6,507879257E0;-8,965308189E0;-1,047458172E0
1,912291845E2;5,197210789E0;-9,076574326E0;-1,159322619E0
1,913291845E2;8,083553314E0;-8,711071014E0;-1,968096614E0
1,914291845E2;6,425326824E0;-7,604390144E0;-1,095314622E0
1,915291845E2;4,548157692E0;-4,284348965E0;-1,406381488E0
1,916291845E2;4,082155228E0;-3,076571703E0;-1,419542074E0
1,917291845E2;6,507879257E0;-6,309873104E0;-1,736590981E0
1,918291845E2;6,320042610E0;-8,739784241E0;-1,100100160E0
1,919291845E2;8,061419487E0;-1,014138031E1;-1,771286964E0
1,920291845E2;6,967301369E0;-9,128020287E0;-1,101894855E0
1,921291845E2;4,120440483E0;-9,441479683E0;-6,640082598E-1
1,922291845E2;7,946564198E0;-9,311669350E0;-1,761715651E0
1,923291845E2;6,082555294E0;-7,247859955E0;-1,923829436E0
1,924291845E2;4,402195454E0;-4,691727161E0;-1,058225870E0
1,925291845E2;3,671786308E0;-2,104487419E0;-1,133001566E0
1,926291845E2;5,960521221E0;-5,171487808E0;-1,456630826E0
1,927291845E2;7,101897717E0;-9,963115692E0;-1,240678549E0
1,928291845E2;9,952347755E0;-9,550353050E0;-2,726023197E0
1,929291845E2;7,084549427E0;-8,079963684E0;-1,076770186E0
1,930291845E2;2,940778971E0;-9,659825325E0;-3,365504980E0
1,931291845E2;1,348235893E1;-5,973681927E0;-1,695913076E0
1,932291845E2;6,772286415E0;-9,803394318E0;-1,604985833E0
1,933291845E2;1,492523074E0;-2,825923443E0;-1,566700578E0
1,934291845E2;7,517650604E0;-7,684549809E0;-1,145563841E0
1,935291845E2;6,936792850E0;-1,145085239E1;-6,849454641E-1
1,936291845E2;9,048459053E0;-1,098843956E1;-2,209173441E0
1,937291845E2;6,056832314E0;-9,052646637E0;-1,917249203E0
1,938291845E2;7,892127514E0;-9,561718941E0;-2,211566210E0
1,939291845E2;8,285746574E0;-9,194420815E0;-1,875972986E0
1,940291845E2;4,438087940E0;-4,924428940E0;-6,801598072E-1
1,941291845E2;2,308475733E0;-1,772483349E0;-6,987041831E-1
1,942291845E2;6,063412666E0;-6,266204357E0;-8,261220455E-1
1,943291845E2;7,125227451E0;-1,073360443E1;-9,990034699E-1
1,944291845E2;8,213961601E0;-9,929018021E0;-1,966900229E0
1,945291845E2;7,953144073E0;-8,619544983E0;-1,617548108E0
1,946291845E2;6,814160824E0;-9,507282257E0;-1,011565804E0
1,947291845E2;7,470990658E0;-8,133802414E0;-1,648654819E0
1,948291845E2;6,037091732E0;-7,088737011E0;-1,428515077E0
1,949291845E2;4,621737003E0;-3,723232031E0;-2,087139606E0
1,950291845E2;5,759523869E0;-3,485744476E0;-1,599601984E0
1,951291845E2;6,838088989E0;-7,068397999E0;-1,378265858E0
1,952291845E2;7,876574039E0;-9,738189697E0;-1,380060434E0
1,953291845E2;8,048258781E0;-9,580862045E0;-1,566102386E0
1,954291845E2;6,713662148E0;-9,190832138E0;-1,417747378E0
1,955291845E2;5,079364300E0;-9,442078590E0;-5,054838061E-1
1,956291845E2;6,470790863E0;-7,768298626E0;-1,325025558E0
1,957291845E2;7,730611801E0;-7,386045456E0;-2,385046005E0
1,958291845E2;3,628117323E0;-2,936591625E0;-1,715653777E0
1,959291845E2;6,917052269E0;-5,882156372E0;-1,542772412E0
1,960291845E2;6,881757736E0;-8,754141808E0;-8,021938205E-1
1,961291845E2;7,936992645E0;-8,472386360E0;-1,621137381E0
1,962291845E2;7,022934437E0;-9,705886841E0;-1,079761267E0
1,963291845E2;5,057230473E0;-9,291330338E0;-8,045865893E-1
1,964291845E2;7,713263988E0;-9,783653259E0;-1,034895778E0
1,965291845E2;7,402196884E0;-8,190033913E0;-1,028315544E0
1,966291845E2;5,139782906E0;-1,013898754E1;-2,280958176E0
1,967291845E2;4,106681824E0;-3,951746702E0;-1,319043517E0
1,968291845E2;7,494918823E0;-5,410770416E0;-1,426122308E0
1,969291845E2;8,323433876E0;-8,175078392E0;-6,987041831E-1
1,970291845E2;7,691130161E0;-9,545567513E0;-1,646860242E0
1,971291845E2;6,210571289E0;-8,903095245E0;-2,105085611E0
1,972291845E2;5,846263885E0;-9,495318413E0;-1,234098315E0
1,973291845E2;7,607381344E0;-8,143971443E0;-1,213161111E0
1,974291845E2;7,256234646E0;-7,194021225E0;-2,339582443E0
1,975291845E2;3,675973892E0;-3,376870871E0;-9,595218897E-1
1,976291845E2;3,859024763E0;-2,386242390E0;-9,164510965E-1
1,977291845E2;6,797410965E0;-1,030409241E1;-6,562315822E-1
1,978291845E2;9,185447693E0;-1,085803127E1;-1,639083505E0
1,979291845E2;7,210172653E0;-9,088538170E0;-1,520638824E0
1,980291845E2;6,081358910E0;-9,080761909E0;-1,297508121E0
1,981291845E2;1,015214825E1;-9,554540634E0;-1,645065546E0
1,982291845E2;6,742375851E0;-6,428318024E0;-6,119644046E-1
1,983291845E2;2,505883455E0;-3,524029493E0;-1,094118118E0
1,984291845E2;4,846662045E0;-4,267001152E0;-1,467398524E0
1,985291845E2;7,153941631E0;-8,532207489E0;-1,457229018E0
1,986291845E2;9,095118523E0;-9,534201622E0;-1,221535921E0
1,987291845E2;7,226922512E0;-9,144171715E0;-1,170090318E0
1,988291845E2;5,553741455E0;-9,259625435E0;-1,010967612E0
1,989291845E2;8,606983185E0;-9,821340561E0;-1,575673699E0
1,990291845E2;7,040282249E0;-7,547560692E0;-2,000399828E0
1,991291845E2;2,980260611E0;-3,219542980E0;-5,246263742E-1
1,992291845E2;4,512265205E0;-3,217748165E0;-1,658824325E0
1,993291845E2;6,385247231E0;-7,341778278E0;-1,785643935E0
1,994291845E2;9,186046600E0;-1,219083309E1;-1,641476393E0
1,995291845E2;5,285745144E0;-8,437690735E0;-7,860422134E-1
1,996291845E2;3,292523861E0;-7,073781967E0;-5,788836002E0
1,997291845E2;4,811966419E0;-8,383852005E0;-1,484148264E0
1,998291845E2;8,174480438E0;-7,808378696E0;-2,030908108E0
1,999291845E2;4,920839787E0;-4,534996986E0;-8,237292171E-1
2,000291845E2;3,381656647E0;-2,270788670E0;-1,027717352E0
2,001291845E2;7,585845947E0;-5,915057659E0;-1,555334687E0
2,002291845E2;7,855038643E0;-9,467801094E0;-1,436890006E0
2,003291845E2;8,229515076E0;-9,372088432E0;-1,132403374E0
2,004291845E2;5,555535793E0;-7,252645493E0;-2,182254314E0
2,005291845E2;6,506084919E0;-1,062712383E1;-3,463610709E-1
2,006291845E2;7,317251682E0;-8,584251404E0;-1,785643935E0
2,007291845E2;6,512066841E0;-7,667201996E0;-1,963310957E0
2,008291845E2;3,019144058E0;-3,318845034E0;-1,470389485E0
2,009291845E2;7,924430370E0;-7,810173035E0;-1,395613790E0
2,010291845E2;6,958328247E0;-1,015753174E1;-9,056833982E-1
2,011291845E2;8,274978638E0;-9,966704369E0;-1,630110383E0
2,012291845E2;5,630909920E0;-8,681160927E0;-9,840483069E-1
2,013291845E2;8,081758499E0;-9,334999084E0;-1,276570916E0
2,014291845E2;7,837690353E0;-8,699705124E0;-1,891526341E0
2,015291845E2;4,470390797E0;-4,119244099E0;-4,510470629E-1
2,016291845E2;3,022135019E0;-3,058625460E0;-1,548156261E0
2,017291845E2;7,442874908E0;-4,858027935E0;-1,664806366E0
2,018291845E2;4,529015064E0;-7,223931789E0;-1,550549030E0
2,019291845E2;8,001599312E0;-1,016889763E1;-1,572682738E0
2,020291845E2;7,243073940E0;-9,376275063E0;-1,373480201E0
2,021291845E2;4,816751957E0;-8,732007980E0;-1,780260086E0
2,022291845E2;7,397411346E0;-9,847063065E0;-1,517647743E0
2,023291845E2;7,182655334E0;-4,876572609E0;-8,733802438E-1
2,024291845E2;4,968696117E0;-6,390032768E0;-1,408774376E0
2,025291845E2;3,598805189E0;-2,394617319E0;-1,398006678E0
2,026291845E2;6,757331371E0;-5,583651543E0;-1,380060434E0
2,027291845E2;7,668996811E0;-1,146042442E1;-1,308275819E0
2,028291845E2;7,332206726E0;-8,730812073E0;6,580262631E-2
2,029291845E2;7,309474945E0;-8,609375954E0;-1,360917926E0
2,030291845E2;6,828517437E0;-9,384650230E0;-1,514058471E0
2,031291845E2;6,032904148E0;-8,511270523E0;-8,045865893E-1
2,032291845E2;5,397011280E0;-4,801796913E0;-1,394417405E0
2,033291845E2;2,720041037E0;-2,632703066E0;-1,206580877E0
2,034291845E2;6,665207386E0;-9,681958199E0;-6,089733839E-1
2,035291845E2;8,487341881E0;-1,049372387E1;-1,346560955E0
2,036291845E2;9,187840462E0;-9,853045464E0;-8,865407705E-1
2,037291845E2;5,852245808E0;-9,657432556E0;-1,649253011E0
2,038291845E2;9,028717995E0;-8,740981102E0;-1,166501045E0
2,039291845E2;6,730412006E0;-7,669594765E0;-8,638089895E-1
2,040291845E2;2,525624275E0;-3,154936552E0;-1,266401410E0
2,041291845E2;3,022135019E0;-1,359721422E0;-5,042873621E-1
2,042291845E2;8,214560509E0;-1,163091278E1;-1,369890928E0
2,043291845E2;9,774082184E0;-1,141914749E1;-1,732403636E0
2,044291845E2;7,582256794E0;-8,428119659E0;-1,578066587E0
2,045291845E2;6,829115868E0;-9,109476089E0;-1,841875196E0
2,046291845E2;8,235497475E0;-9,393025398E0;-2,352742910E0
2,047291845E2;4,884349346E0;-3,746562004E0;7,567301393E-1
2,048291845E2;3,205784082E0;-2,402992249E0;-1,267597795E0
2,049291845E2;3,127419233E0;-3,546761274E0;-1,481157184E0
2,050291845E2;7,908278942E0;-8,580661774E0;-1,522433400E0
2,051291845E2;1,061515903E1;-9,801599503E0;-2,117648125E0
2,052291845E2;4,517050743E0;-1,081854916E1;-1,132403374E0
2,053291845E2;8,295317650E0;-9,309276581E0;-6,484549642E-1
2,054291845E2;5,851647854E0;-8,123632431E0;-1,695913076E0
2,055291845E2;1,712064624E0;-2,955136061E0;-1,106082320E0
2,056291845E2;5,681757450E0;-3,323032379E0;-1,832303882E0
2,057291845E2;6,373282909E0;-1,047338486E1;-9,625129104E-1
2,058291845E2;1,035194874E1;-1,049850941E1;-2,205584288E0
2,059291845E2;4,447061062E0;-8,565707207E0;-1,053440213E0
2,060291845E2;7,929215908E0;-9,875179291E0;-1,116850019E0
