"Time (s)";"Gyroscope x (rad/s)";"Gyroscope y (rad/s)";"Gyroscope z (rad/s)"
1,818159700E-2;-2,559525371E-1;-1,380555511E0;-1,282816976E-1
8,396239200E-2;-9,483683109E-2;-1,317178130E0;3,451388776E-1
1,839623920E-1;-8,949175477E-2;-1,137736559E0;-5,158756971E-1
2,839623920E-1;-3,168863356E-1;-1,124144793E0;-4,552473128E-1
3,839623920E-1;-1,178359032E0;-1,322370529E0;1,420261711E-2
4,839623920E-1;-9,876163602E-1;-3,935499489E-1;7,961101532E-1
5,839623920E-1;1,725694388E-1;2,431243658E-1;1,245859623E0
6,839623920E-1;-8,958339095E-1;6,333145499E-1;1,356884480E0
7,839623920E-1;-1,260215044E0;1,513418704E-1;7,000515461E-1
8,839623920E-1;-1,470047235E0;-1,959350228E0;1,399950385E0
9,839623920E-1;-2,073123932E0;-3,135571241E0;3,356399059E0
1,083962392E0;2,523331642E0;-5,891795158E0;6,033668518E0
1,183962392E0;1,440878391E0;-4,421137333E0;5,319414616E0
1,283962392E0;-2,339766502E0;2,325869352E-1;1,513571382E0
1,383962392E0;-5,364924073E-1;1,974469185E0;1,807092071E0
1,483962392E0;8,642216325E-1;2,089770079E0;1,485471606E0
1,583962392E0;1,273195863E0;7,426594496E-1;5,658139586E-1
1,683962392E0;9,193521738E-1;2,357328892E0;-2,640312195E0
1,783962392E0;-1,841911435E0;2,414444834E-1;-4,101807594E0
1,883962392E0;2,916881628E-2;-3,359758761E-3;-4,166711807E0
1,983962392E0;3,633120954E-1;-1,526094079E0;-2,950173616E0
2,083962392E0;4,506658316E-1;-1,079398870E0;-1,368338108E0
2,183962392E0;-6,543893814E-1;5,514585972E-1;-8,141306639E-1
2,283962392E0;-1,241736293E0;2,041969776E0;1,488373160E0
2,383962392E0;-2,803413391E0;3,359606028E0;-2,299144030E0
2,483962392E0;-3,693749428E0;1,800372601E0;-5,793904305E0
2,583962392E0;2,967278063E-1;4,069278717E0;-1,491122007E0
2,683962392E0;-7,087563872E-1;3,041192532E0;-2,626415014E0
2,783962392E0;1,097724795E0;-4,415028691E-1;3,628539443E-1
2,883962392E0;-2,707660198E-1;8,909469843E-1;-5,665775016E-2
2,983962392E0;-1,679115891E0;1,928196192E0;1,922698319E-1
3,083962392E0;-3,150842905E0;2,578462124E0;-6,236934066E-1
3,183962392E0;-1,054811597E0;-3,176041126E0;1,364367485E0
3,283962392E0;-4,121813178E-1;-1,345736146E0;1,922545671E0
3,383962392E0;1,611157060E0;-6,091395378E0;2,525164127E0
3,483962392E0;2,387413979E0;-8,913593292E0;8,491026610E-2
3,583962392E0;-2,325869352E-1;-7,194465399E-1;6,163630486E-1
3,683962392E0;1,321454287E0;-3,742618561E0;2,498438835E0
3,783962392E0;2,213928461E0;-2,057394028E0;3,721543789E0
3,883962392E0;1,363756657E-1;1,808313847E0;5,725334287E-1
3,983962392E0;1,449888706E0;7,667886019E-1;-7,666358948E-1
4,083962392E0;1,174541116E0;-1,133002281E0;-1,194546938E0
4,183962392E0;-3,200933933E-1;-2,816852331E0;-3,991088152E0
4,283962392E0;-6,811147332E-1;-6,139195561E-1;-1,669800162E0
4,383962392E0;-2,375502110E0;1,037707329E0;1,746158361E0
4,483962392E0;1,652695894E0;-4,896084964E-1;1,279762745E0
4,583962392E0;-1,835650057E-1;-1,242194533E0;-4,002694607E0
4,683962392E0;-1,622610807E0;2,379320115E-1;1,966833353E0
4,783962392E0;-2,049452960E-1;-9,775370955E-1;7,825183868E-1
4,883962392E0;1,745394707E0;-3,011565685E0;5,737246513E0
4,983962392E0;1,438587606E-1;-4,600884438E0;2,123214960E0
5,083962392E0;8,378016949E-1;-1,074970126E0;1,477377653E0
5,183962392E0;-5,792529583E-1;-5,360342562E-2;2,868012190E-1
5,283962392E0;1,711949855E-1;8,701775670E-1;-8,261952549E-2
5,383962392E0;-5,864306539E-2;1,355968118E0;-2,748893574E-3
5,483962392E0;-1,970040426E-2;1,196074128E0;1,027475357E0
5,583962392E0;-8,808676600E-1;6,307183504E-1;1,273195863E0
5,683962392E0;-2,806925774E0;-6,569855809E-1;2,026392698E0
5,783962392E0;-2,840981483E0;-1,282817032E-2;2,401922226E0
5,883962392E0;-3,352886677E0;3,262020350E-1;1,577101350E0
5,983962392E0;-2,874273777E0;3,171917796E-1;-3,373503387E-1
6,083962392E0;-2,452013016E0;2,878702581E-1;-1,410335183E0
6,183962392E0;-8,219192028E-1;5,568036437E-1;-2,862056494E0
6,283962392E0;-1,861611903E-1;3,824016452E-1;-3,313943863E0
6,383962392E0;-4,980078936E-1;2,255619913E-1;-2,803260565E0
6,483962392E0;-7,509061098E-1;9,269879758E-2;-2,446515322E0
6,583962392E0;-8,097018600E-1;6,947064996E-1;-2,051743746E0
6,683962392E0;-7,128797174E-1;1,235933065E0;-1,842674971E0
6,783962392E0;-3,031418920E-1;8,066475391E-1;-1,498452425E0
6,883962392E0;-2,049452960E-1;8,026769161E-1;-9,205739498E-1
6,983962392E0;-2,014328092E-1;7,145596147E-1;-8,949175477E-2
7,083962392E0;-4,192062616E-1;6,210972667E-1;-1,301143020E-1
7,183962392E0;9,359982610E-1;6,126978397E-1;1,708895564E-1
7,283962392E0;9,793697000E-1;6,936374903E-1;1,444696337E-1
7,383962392E0;1,274570346E0;2,451096773E-1;5,592471361E-1
7,483962392E0;1,197295904E0;1,583668143E-1;7,463245988E-1
7,583962392E0;1,191339970E0;3,368921876E-1;5,849034786E-1
7,683962392E0;9,989174008E-1;2,215913683E-1;4,129449129E-1
7,783962392E0;4,747950137E-1;7,330382615E-2;3,538436890E-1
7,883962392E0;6,809620261E-1;1,114829108E-1;5,838344693E-1
7,983962392E0;-6,197227836E-1;4,451680481E-1;-8,552113175E-2
8,083962392E0;-5,601634383E-1;1,072832108E0;-4,280638099E-1
8,183962392E0;1,569923609E-1;4,156937897E-1;-2,093740702E-1
8,283962392E0;-4,199698567E-1;4,938845634E-1;-2,373211533E-1
8,383962392E0;-5,772676468E-1;-1,053742506E-2;-5,896376967E-1
8,483962392E0;-1,180649757E0;-7,034113407E-1;-3,711006343E-1
8,583962392E0;-1,464091301E0;-8,278751373E-1;-3,488040566E-1
8,683962392E0;-1,129031658E0;4,408919811E-1;-6,472117305E-1
8,783962392E0;-5,882632136E-1;7,467827797E-1;-1,047633886E-1
8,883962392E0;5,074763298E-1;6,414085031E-1;1,279609919E0
8,983962392E0;1,069472313E0;7,302893996E-1;1,287551165E0
9,083962392E0;1,182024240E0;1,736384481E-1;1,496619821E0
9,183962392E0;9,912815690E-1;2,414444834E-1;1,491122007E0
9,283962392E0;2,226603776E-1;-5,218316317E-1;4,031710625E-1
9,383962392E0;1,354593635E-1;1,366810948E-1;-4,134030640E-1
9,483962392E0;-2,678644061E-1;-5,375614166E-1;-8,086328506E-1
9,583962392E0;-4,818199575E-1;-2,608394623E-1;-9,535606503E-1
9,683962392E0;-1,489442229E0;-3,567453027E-1;-8,949176073E-1
9,783962392E0;-1,912313700E0;-1,985312104E-1;-6,835582256E-1
9,883962392E0;-1,100473762E0;-6,918048859E-2;-5,852088928E-1
9,983962392E0;-1,742493063E-1;3,930917978E-1;-5,650503561E-3
1,008396239E1;1,306488037E0;9,465357065E-1;1,175152063E0
1,018396239E1;1,606270194E0;6,713408828E-1;1,426523089E0
1,028396239E1;1,573894262E0;1,583668143E-1;1,940108061E0
1,038396239E1;9,914342761E-1;-1,313360315E-2;1,202335477E0
1,048396239E1;-2,307543457E-1;3,394883573E-1;-8,384125233E-1
1,058396239E1;-4,046982229E-1;-4,581489414E-2;-4,967861474E-1
1,068396239E1;-1,530064702E0;-5,080871582E-1;-1,249524832E0
1,078396239E1;-2,188882828E0;-2,915354371E-1;-9,359982610E-1
1,088396239E1;-1,448819637E0;-3,400992155E-1;-5,169447064E-1
1,098396239E1;9,309586287E-1;8,075638413E-1;7,925976515E-1
1,108396239E1;1,693165779E0;6,656904221E-1;1,373835921E0
1,118396239E1;1,973400116E0;3,252857551E-2;1,664913177E0
1,128396239E1;1,344361663E0;-1,579086632E-1;1,204320788E0
1,138396239E1;-3,150537610E-1;1,991420686E-1;-6,914994717E-1
1,148396239E1;-2,596177161E-1;-5,787948146E-2;-1,084743977E0
1,158396239E1;-1,778381467E0;2,180788964E-1;-1,216843605E0
1,168396239E1;-2,261423111E0;-3,466660157E-2;-9,033169746E-1
1,178396239E1;-1,043815970E0;-3,985895589E-2;-2,780964077E-1
1,188396239E1;-2,032654136E-1;3,391829133E-1;1,882992089E-1
1,198396239E1;1,299157619E0;9,077457786E-1;1,621694565E0
1,208396239E1;1,379944563E0;4,289801121E-1;1,771356463E0
1,218396239E1;8,785769343E-1;-2,718350291E-2;1,824043632E0
1,228396239E1;1,020144969E-1;9,926560335E-3;8,396342993E-1
1,238396239E1;-2,770273983E-1;3,523165286E-1;-9,949467778E-1
1,248396239E1;-4,841107130E-1;-9,975429177E-1;-1,017701507E0
1,258396239E1;-2,309223413E0;-6,461427212E-1;-1,448514223E0
1,268396239E1;-2,042428017E0;-5,852088928E-1;-1,250135779E0
1,278396239E1;5,946773291E-1;3,442225754E-1;-3,882048726E-1
1,288396239E1;1,585653424E0;7,388415337E-1;5,094616413E-1
1,298396239E1;2,162004709E0;1,056185961E0;1,719891071E0
1,308396239E1;1,772425532E0;5,777258277E-1;1,794569373E0
1,318396239E1;-1,285871267E-1;-8,765916526E-2;2,458732575E-1
1,328396239E1;-7,105889916E-1;4,960225821E-1;-4,112650156E-1
1,338396239E1;-1,466992855E0;-5,349652171E-1;-1,554041147E0
1,348396239E1;-2,658485651E0;-3,735440969E-1;-1,040303469E0
1,358396239E1;-1,415374756E0;-4,801400900E-1;-7,078400850E-1
1,368396239E1;1,305724502E0;1,059240341E0;9,314168096E-1
1,378396239E1;2,005317926E0;9,743300676E-1;1,630246639E0
1,388396239E1;1,591303945E0;2,858849466E-1;2,079690695E0
1,398396239E1;7,124215961E-1;1,400408596E-1;1,265407324E0
1,408396239E1;-4,344778955E-1;6,837109327E-1;-9,314168096E-1
1,418396239E1;-9,639453292E-1;-1,695151031E-1;-1,728443265E0
1,428396239E1;-2,871371984E0;-1,517542005E0;-9,523389339E-1
1,438396239E1;-1,667356730E0;-4,706716835E-1;-8,515461683E-1
1,448396239E1;5,560401082E-1;7,840455174E-1;1,511891484E-1
1,458396239E1;1,407891631E0;9,917397499E-1;1,109789491E0
1,468396239E1;1,744173050E0;6,528622508E-1;2,071291447E0
1,478396239E1;1,169196129E0;2,634356320E-1;2,231338024E0
1,488396239E1;-4,692972302E-1;-6,867652535E-1;-9,071348608E-2
1,498396239E1;-2,674062550E-1;6,743952036E-1;-8,688030839E-1
1,508396239E1;-1,339474797E0;-6,739370823E-1;-1,204931736E0
1,518396239E1;-2,151009321E0;-7,021896243E-1;-9,760099649E-1
1,528396239E1;-1,739438772E0;-8,399397135E-1;-5,053382516E-1
1,538396239E1;-7,936666608E-1;-1,514945775E-1;-5,450445414E-1
1,548396239E1;1,323286891E0;7,446447611E-1;1,015410781E0
1,558396239E1;1,738675237E0;3,335324228E-1;1,496925235E0
1,568396239E1;1,501506805E0;-1,237002090E-1;1,814880610E0
1,578396239E1;6,531676650E-1;-4,427245855E-1;8,159632683E-1
1,588396239E1;-4,048509300E-1;2,360994220E-1;-8,478809595E-1
1,598396239E1;-1,380097270E0;-8,565858006E-1;-1,387427688E0
1,608396239E1;-1,930945039E0;-5,276348591E-1;-1,218523502E0
1,618396239E1;-1,647961736E0;-9,912815690E-1;-9,992228150E-1
1,628396239E1;-6,690501571E-1;-1,004873365E-1;-6,151412725E-1
1,638396239E1;1,751656055E0;7,235698700E-1;9,123272300E-1
1,648396239E1;2,306169033E0;3,031418920E-1;1,298088670E0
1,658396239E1;1,241278172E0;-3,029891551E-1;1,498299718E0
1,668396239E1;5,164865851E-1;-7,881689072E-1;5,598580241E-1
1,678396239E1;-3,350595832E-1;6,001751125E-2;-8,265006542E-1
1,688396239E1;-2,235766798E-1;-7,715228200E-1;-9,346238375E-1
1,698396239E1;-1,661248088E0;-4,575380683E-1;-1,596190929E0
1,708396239E1;-2,441323042E0;-7,188356519E-1;-1,687209845E0
1,718396239E1;-5,001459122E-1;1,024726480E-1;-4,005748928E-1
1,728396239E1;1,853975952E-1;-1,617265791E-1;-6,811147183E-2
1,738396239E1;1,352761030E0;3,057380617E-1;8,312348723E-1
1,748396239E1;1,857030392E0;6,641632318E-1;1,224937558E0
1,758396239E1;1,282817006E0;-2,310597748E-1;1,341154695E0
1,768396239E1;8,257371187E-1;-6,913467646E-1;9,694431424E-1
1,778396239E1;3,558290005E-2;-7,541131377E-1;-4,980078936E-1
1,788396239E1;-3,384193480E-1;-4,437935948E-1;-1,155298948E0
1,798396239E1;-1,291979998E-1;-4,961752892E-1;-1,128878951E0
1,808396239E1;-5,525276065E-1;-9,949467778E-1;-1,265254617E0
1,818396239E1;-1,179580808E0;-3,552181423E-1;-1,059087634E0
1,828396239E1;-1,259909511E0;-6,131559610E-1;-8,428413272E-1
1,838396239E1;2,730567753E-1;6,230825558E-2;-2,823724449E-1
1,848396239E1;1,122312188E0;6,485861540E-1;4,535674453E-1
1,858396239E1;1,930486917E0;1,345583439E0;8,639161587E-1
1,868396239E1;1,318094492E0;-2,611448988E-2;1,372308731E0
1,878396239E1;5,302310586E-1;4,225660264E-1;8,758280277E-1
1,888396239E1;7,391469181E-2;4,674646258E-1;-7,257078886E-1
1,898396239E1;-2,883284092E-1;-2,930625975E-1;-8,040513992E-1
1,908396239E1;-9,523389339E-1;-9,781479836E-1;-1,226311922E0
1,918396239E1;-1,458288074E0;-8,410087228E-1;-1,054047942E0
1,928396239E1;-1,766316891E0;-1,999056488E-1;-1,058629513E0
1,938396239E1;-3,845396638E-1;-3,573561832E-2;-8,556694984E-1
1,948396239E1;1,430188298E0;5,955936313E-1;7,892379165E-1
1,958396239E1;1,697594523E0;8,648324609E-1;1,075886369E0
1,968396239E1;1,513113260E0;6,330091357E-1;1,659568191E0
1,978396239E1;1,189201951E0;2,709187269E-1;1,628108621E0
1,988396239E1;-1,652390510E-1;-4,717406929E-1;-4,088215530E-1
1,998396239E1;-1,004873365E-1;2,941316068E-1;-8,032878041E-1
2,008396239E1;-1,053437114E0;-1,319468915E-1;-1,367574573E0
2,018396239E1;-1,345430732E0;-3,526219726E-1;-1,099557400E0
2,028396239E1;-1,593441963E0;-6,203336716E-1;-6,934847832E-1
2,038396239E1;-1,181871533E0;-4,935791194E-1;-8,263479471E-1
2,048396239E1;8,368853927E-1;4,173736870E-1;3,231477141E-1
2,058396239E1;1,634522676E0;8,080220222E-1;1,085965633E0
2,068396239E1;1,652695894E0;4,896084964E-1;1,683697343E0
2,078396239E1;1,378722906E0;3,706424832E-1;1,494023681E0
2,088396239E1;-2,457205504E-1;-2,973386645E-1;5,803219974E-2
2,098396239E1;-4,563163519E-1;1,806633919E-1;-9,384417534E-1
2,108396239E1;-5,908594131E-1;-5,057964325E-1;-1,288772941E0
2,118396239E1;-1,952325344E0;-1,895209402E-1;-1,476003170E0
2,128396239E1;-1,719127536E0;-3,978259861E-1;-9,129381180E-1
2,138396239E1;-3,969096839E-1;-8,399397135E-2;-1,641700417E-1
2,148396239E1;8,003861904E-1;7,238753438E-1;7,002043128E-1
2,158396239E1;1,554652095E0;7,422012687E-1;1,730886698E0
2,168396239E1;1,719585657E0;3,074179292E-1;1,701565146E0
2,178396239E1;6,447682381E-1;-2,767219543E-1;9,014843702E-1
2,188396239E1;-9,315694869E-2;-1,672243625E-1;-8,888089657E-2
2,198396239E1;-2,167044431E-1;1,878410578E-1;-7,783950567E-1
2,208396239E1;-1,052368045E0;-1,892155111E-1;-1,156978726E0
2,218396239E1;-1,852296114E0;-4,127921760E-1;-1,056949615E0
2,228396239E1;-1,736689925E0;-8,503243923E-1;-5,960517526E-1
2,238396239E1;-7,666358948E-1;-1,656972021E-1;-6,369797587E-1
2,248396239E1;4,158465266E-1;8,778133392E-1;1,143845171E-1
2,258396239E1;1,676061511E0;7,783950567E-1;1,524719596E0
2,268396239E1;1,747532725E0;3,969096839E-1;1,819767594E0
2,278396239E1;9,537133574E-1;1,647808999E-1;9,784533978E-1
2,288396239E1;5,187773108E-1;7,443392873E-1;1,415680200E-1
2,298396239E1;5,803219974E-2;3,813326359E-1;1,099557430E-1
2,308396239E1;-4,856378585E-2;-2,231185287E-1;1,557706445E-1
2,318396239E1;-1,177442744E-1;3,617849350E-1;9,162978968E-4
2,328396239E1;-3,255911767E-1;3,335324228E-1;1,905899495E-1
2,338396239E1;4,526511431E-1;-4,825835302E-2;4,098905921E-1
2,348396239E1;1,067487001E-1;3,630066812E-1;7,987063378E-2
2,358396239E1;-5,192354694E-2;4,185954034E-1;1,740965992E-2
2,368396239E1;-2,918408811E-1;-2,573269904E-1;3,321579695E-1
2,378396239E1;-3,643811047E-1;-1,556179225E-1;1,440114826E-1
2,388396239E1;-5,650503561E-2;1,143845171E-1;1,030835137E-1
2,398396239E1;-5,986479297E-2;-3,054326167E-3;1,852448881E-1
2,408396239E1;-1,146899462E-1;-3,075706363E-1;9,086620808E-2
2,418396239E1;1,346957833E-1;-3,452915847E-1;-2,000583708E-2
2,428396239E1;-8,155050874E-2;-6,979135424E-2;-4,214970022E-2
2,438396239E1;-2,377792895E-1;-2,397646010E-2;-1,374446787E-3
2,448396239E1;1,379028261E-1;-1,617265791E-1;-1,206458826E-2
2,458396239E1;1,101084575E-1;-2,498438805E-1;-1,675297916E-1
2,468396239E1;-1,174388453E-1;8,109235764E-2;1,530217379E-1
2,478396239E1;-1,582140923E-1;1,386664063E-1;2,628247738E-1
2,488396239E1;-2,872593701E-1;4,016438872E-2;1,481348276E-1
2,498396239E1;-7,437284291E-2;-5,177082866E-2;-5,406157300E-2
2,508396239E1;-8,735372871E-2;-2,741257846E-1;7,406741381E-2
2,518396239E1;-3,352122903E-1;-2,105957866E-1;3,184134960E-1
2,528396239E1;-6,450737119E-1;5,971207842E-2;4,356996417E-1
2,538396239E1;-5,670356750E-1;-5,067127347E-1;2,898555696E-1
2,548396239E1;1,446223408E-1;-5,064072609E-1;-1,918116808E-1
2,558396239E1;6,765332818E-2;-1,241583601E-1;-1,542434692E-1
2,568396239E1;1,976149082E-1;-3,049744666E-1;-2,487748712E-1
2,578396239E1;3,440698385E-1;6,349944472E-1;1,232420653E-1
2,588396239E1;-2,138028387E-3;3,237585723E-2;-2,927571833E-1
2,598396239E1;2,414444834E-1;-2,782491148E-1;-6,192646623E-1
2,608396239E1;3,300199509E-1;1,270599663E-1;-2,455678284E-1
2,618396239E1;-4,929682612E-1;9,697485715E-2;4,410447180E-1
2,628396239E1;-1,427897513E-1;-9,498954564E-2;5,587889552E-1
2,638396239E1;4,062253982E-2;-3,083342314E-1;6,459899992E-2
2,648396239E1;-3,695734590E-2;-6,123924255E-1;8,918632567E-2
2,658396239E1;1,463022232E-1;-7,574728876E-2;-9,926560521E-2
2,668396239E1;1,719585657E-1;2,580905706E-2;-1,230893433E-1
2,678396239E1;-3,054326167E-3;1,298088580E-1;-2,554943860E-1
2,688396239E1;1,198823079E-1;1,983784884E-1;-1,519527286E-1
2,698396239E1;-4,795292020E-2;2,825251780E-2;7,803803682E-2
2,708396239E1;8,399397135E-3;-1,007927656E-1;3,817907721E-2
2,718396239E1;1,870774776E-1;-6,750060618E-2;-1,253800988E-1
2,728396239E1;2,484694421E-1;-5,222897977E-2;-7,712173462E-2
2,738396239E1;9,392052889E-2;1,249219403E-1;-2,167044431E-1
2,748396239E1;1,113301888E-1;9,590584040E-2;-2,277000248E-1
2,758396239E1;-1,296561509E-1;-7,788531948E-3;6,169738993E-2
2,768396239E1;-8,307767659E-2;-4,428773001E-2;9,392052889E-2
2,778396239E1;7,177666761E-3;-8,781187981E-2;7,040221989E-2
2,788396239E1;1,160643995E-2;-8,567385375E-2;7,788532227E-2
2,798396239E1;-3,405573592E-2;2,351831272E-2;-1,481348183E-2
2,808396239E1;-7,009678334E-2;7,941247895E-3;2,580905706E-2
2,818396239E1;-2,565634064E-2;7,208210230E-2;3,039054573E-2
2,828396239E1;-2,290744707E-2;-8,093964309E-3;8,704829961E-3
2,838396239E1;3,054326167E-3;4,428773001E-2;-2,412917651E-2
2,848396239E1;-3,298672289E-2;-1,282817032E-2;4,581489135E-3
2,858396239E1;-1,069014193E-3;1,511891466E-2;-5,513058975E-2
2,868396239E1;1,328631863E-2;2,962696366E-2;-9,162978968E-4
2,878396239E1;-2,367102914E-2;9,224065393E-2;-2,351831272E-2
2,888396239E1;3,054326226E-4;5,742133409E-2;-2,367102914E-2
2,898396239E1;2,519819140E-2;5,024366826E-2;-2,718350291E-2
2,908396239E1;-2,061670274E-2;-1,985312067E-2;-9,010262787E-3
2,918396239E1;-1,603521220E-2;1,618792862E-2;-7,024950348E-3
2,928396239E1;3,054326167E-3;4,398229718E-2;1,908953860E-2
2,938396239E1;-3,970623948E-3;1,832595654E-2;2,138028294E-2
2,948396239E1;-7,788531948E-3;-3,359758854E-2;2,550362423E-2
2,958396239E1;-4,734205548E-3;-2,428189293E-2;2,336559631E-2
2,968396239E1;2,993239649E-2;-3,711006418E-2;2,290744567E-3
2,978396239E1;-2,443460980E-3;-1,420261711E-2;-1,740965992E-2
2,988396239E1;-5,803219974E-2;6,062837690E-2;1,252273750E-2
2,998396239E1;-2,183843218E-2;1,207986027E-1;6,551529467E-2
3,008396239E1;-1,603521220E-2;2,296853364E-1;8,185594529E-2
3,018396239E1;1,511891466E-2;9,926560335E-3;9,621127509E-3
3,028396239E1;7,452555746E-2;9,162978968E-4;-2,748893574E-2
3,038396239E1;-5,971207842E-2;-2,214386500E-2;1,705841124E-1
3,048396239E1;-4,627304152E-2;-4,688390717E-2;1,521054506E-1
3,058396239E1;-4,963280261E-2;4,566217586E-2;1,389718503E-1
3,068396239E1;-6,704246253E-2;1,924225502E-2;6,352998316E-2
3,078396239E1;-1,137736514E-1;-3,634648025E-2;5,803219974E-2
3,088396239E1;-1,756237634E-2;4,291328415E-2;-6,841690838E-2
3,098396239E1;-1,178969890E-1;-2,823724449E-1;-2,576324046E-1
3,108396239E1;-7,254024595E-2;-2,515237629E-1;-1,997529417E-1
3,118396239E1;-1,131627858E-1;-3,501785100E-1;-2,330450863E-1
3,128396239E1;-5,910121277E-2;-3,507893682E-1;-2,015855312E-1
3,138396239E1;-2,576324046E-1;5,978843570E-1;-5,262604356E-1
3,148396239E1;-1,808161139E-1;9,589056969E-1;-3,220787048E-1
3,158396239E1;2,310597748E-1;1,710422635E-1;-4,651738703E-1
3,168396239E1;2,779437006E-1;2,457205504E-1;-4,718934000E-1
3,178396239E1;-2,400700450E-1;4,091269970E-1;-9,697485715E-2
3,188396239E1;8,048149943E-2;5,467243791E-1;-2,996293902E-1
3,198396239E1;-4,453207552E-1;5,152648091E-1;1,944078654E-1
3,208396239E1;-8,281805515E-1;9,691377282E-1;4,975497425E-1
3,218396239E1;-4,726569951E-1;6,928738952E-1;-1,175915636E-2
3,228396239E1;-5,937610269E-1;1,634064503E-2;-4,213443100E-1
3,238396239E1;-4,796819389E-1;-3,773620129E-1;-3,388774991E-1
3,248396239E1;1,182024255E-1;-8,124507666E-1;-4,867068827E-1
3,258396239E1;1,014036313E-1;-7,994698882E-1;-6,672175527E-1
3,268396239E1;-4,282165468E-1;-6,258314252E-1;-6,701191664E-1
3,278396239E1;-6,925684810E-1;-1,543961912E-1;-4,926628172E-1
3,288396239E1;-5,303837657E-1;-1,641700417E-1;-4,306600094E-1
3,298396239E1;-9,712757170E-2;5,496259928E-1;-1,498146951E-1
3,308396239E1;3,100141138E-2;9,512699246E-1;3,277291954E-1
3,318396239E1;4,938845634E-1;1,211651206E0;6,858489513E-1
3,328396239E1;7,383833528E-1;8,387179971E-1;1,134682178E0
3,338396239E1;7,652614117E-1;3,439171314E-1;1,195005178E0
3,348396239E1;4,517348409E-1;-8,556694984E-1;1,335656881E0
3,358396239E1;-1,540907621E-1;-5,430592299E-1;1,286176801E0
3,368396239E1;-2,597704530E-1;-2,823724449E-1;1,641700417E-1
3,378396239E1;-5,436700583E-1;-6,855435371E-1;-6,873761415E-1
3,388396239E1;7,889324427E-1;-3,730859458E-1;-1,235322237E0
3,398396239E1;3,627012372E-1;-1,313513041E0;-1,673770785E0
3,408396239E1;-1,075733662E0;-8,422304392E-1;-1,421025276E0
3,418396239E1;-1,494939923E0;-8,439103365E-1;-1,287856698E0
3,428396239E1;-1,168279797E-1;1,201877370E-1;-9,460775256E-1
3,438396239E1;5,661193728E-1;6,224716902E-1;-4,407392740E-1
3,448396239E1;1,081689596E0;1,959044814E0;1,421025276E0
3,458396239E1;5,557346344E-1;6,774495840E-1;2,270586014E0
3,468396239E1;3,327688277E-1;2,515237629E-1;2,144289732E0
3,478396239E1;-3,217732608E-1;-2,822197378E-1;-2,643519342E-1
3,488396239E1;1,310305893E-1;9,181304574E-1;-6,420193911E-1
3,498396239E1;-9,946413636E-1;-1,713477075E-1;-1,496619821E0
3,508396239E1;-1,681712031E0;-1,132696867E0;-1,306640744E0
3,518396239E1;-1,583668113E0;-9,714284539E-1;-9,062185884E-1
3,528396239E1;-2,359467000E-1;2,061670274E-2;-5,920811296E-1
3,538396239E1;1,547627091E0;1,513418674E0;1,837177277E0
3,548396239E1;1,656361103E0;1,087034702E0;2,035250187E0
3,558396239E1;6,612616181E-1;-1,774563491E-1;1,518610954E0
3,568396239E1;-2,377792895E-1;-9,813550115E-1;8,399397135E-3
3,578396239E1;-1,841758788E-1;2,353358418E-1;-1,097572088E0
3,588396239E1;-6,493497491E-1;-4,195117056E-1;-1,449888706E0
3,598396239E1;-1,532050014E0;-5,732970238E-1;-8,156577945E-1
3,608396239E1;-1,656666517E0;-8,014551997E-1;-8,877398968E-1
3,618396239E1;-2,863430977E-1;1,899790913E-1;-5,372560024E-1
3,628396239E1;5,833762884E-1;9,434813857E-1;3,776674271E-1
3,638396239E1;1,498147011E0;5,361869931E-1;2,136348486E0
3,648396239E1;1,205847979E0;2,261728644E-1;2,245540619E0
3,658396239E1;1,857030392E-1;-5,590944290E-1;7,602217793E-1
3,668396239E1;-2,677116990E-1;2,791654170E-1;-7,997753024E-1
3,678396239E1;-6,314819455E-1;-4,721988440E-1;-1,409724236E0
3,688396239E1;-1,366811037E0;-8,605564237E-1;-1,922240257E0
3,698396239E1;-1,881923079E0;-1,154382586E0;-7,580837607E-1
3,708396239E1;-2,122756653E-2;2,684752643E-1;-6,233879924E-1
3,718396239E1;1,079246163E0;9,398161769E-1;2,553416789E-1
3,728396239E1;1,671785474E0;1,263116598E0;1,673770785E0
3,738396239E1;1,193477988E0;4,312708676E-1;1,852754235E0
3,748396239E1;3,394883573E-1;-3,298672438E-1;8,549059033E-1
3,758396239E1;-3,813326359E-1;-5,900958180E-1;-3,304781020E-1
3,768396239E1;-1,450804919E-1;-3,433062732E-1;-1,092227101E0
3,778396239E1;-7,073819637E-1;-4,152356386E-1;-1,528843045E0
3,788396239E1;-1,900401831E0;-6,769914031E-1;-8,796459436E-1
3,798396239E1;-1,726305127E0;-7,334964275E-1;-7,652614117E-1
3,808396239E1;3,781255782E-1;8,546004891E-1;8,811730891E-2
3,818396239E1;1,148426652E0;1,165836334E0;1,130864263E0
3,828396239E1;1,517542005E0;5,575672388E-1;2,097405910E0
3,838396239E1;1,112080216E0;-3,481931984E-2;1,999361992E0
3,848396239E1;-2,367102914E-2;-7,128797174E-1;-2,397646010E-2
3,858396239E1;-5,314527452E-2;1,168279797E-1;-6,789767146E-1
3,868396239E1;-5,155702829E-1;-2,977968156E-1;-1,220355988E0
3,878396239E1;-7,793113589E-1;6,490442902E-2;-1,277319193E0
3,888396239E1;-1,531439185E0;-6,989825368E-1;-8,301658630E-1
3,898396239E1;-1,639562368E0;-5,335907936E-1;-1,047481179E0
3,908396239E1;3,512475193E-1;5,619960427E-1;-2,759583890E-1
3,918396239E1;9,640980959E-1;9,705121517E-1;1,017243385E0
3,928396239E1;1,292438149E0;8,736900091E-1;1,990198970E0
3,938396239E1;1,038776398E0;2,012801021E-1;2,074345589E0
3,948396239E1;2,941316068E-1;-2,081523389E-1;7,021896243E-1
3,958396239E1;-1,360702366E-1;6,922630668E-1;-9,634872079E-1
3,968396239E1;-3,755294085E-1;1,075122803E-1;-1,248455882E0
3,978396239E1;-1,235016823E0;-8,959866166E-1;-1,299615860E0
3,988396239E1;-1,833970189E0;-7,489207983E-1;-1,169501543E0
3,998396239E1;-7,872526050E-1;-7,180721164E-1;-5,894849896E-1
4,008396239E1;3,465133011E-1;4,888449013E-1;-1,786780916E-2
4,018396239E1;1,326035738E0;1,102917194E0;1,189201951E0
4,028396239E1;1,443474531E0;5,933028460E-1;1,700190663E0
4,038396239E1;1,041983366E0;-2,596177161E-1;1,756237626E0
4,048396239E1;3,619376719E-1;-6,204863787E-1;8,932377100E-1
4,058396239E1;-2,128865421E-1;1,024726480E-1;-8,881980777E-1
4,068396239E1;-6,872233748E-2;-4,932736978E-2;-1,299004912E0
4,078396239E1;-1,000444531E0;-8,025242090E-1;-1,405753613E0
4,088396239E1;-1,440878391E0;-1,040150762E0;-1,022435665E0
4,098396239E1;-1,051146388E0;-3,773620129E-1;-9,370672703E-1
4,108396239E1;1,310305893E-1;4,404338300E-1;-2,704605758E-1
4,118396239E1;1,462716818E0;1,169501543E0;1,498757839E0
4,128396239E1;1,534493446E0;1,022435665E0;1,792431355E0
4,138396239E1;9,251554012E-1;1,266018152E-1;1,532660842E0
4,148396239E1;3,917173445E-1;-1,756237596E-1;7,052439451E-1
4,158396239E1;-3,747658134E-1;9,758572280E-2;-7,170031071E-1
4,168396239E1;-5,141957998E-1;-8,704829961E-3;-1,222799540E0
4,178396239E1;-1,473254204E0;-6,811147332E-1;-1,142470717E0
4,188396239E1;-1,538922310E0;-9,175195694E-1;-3,686571717E-1
4,198396239E1;-8,084801435E-1;9,224065393E-2;-6,791294217E-1
4,208396239E1;1,032056808E0;1,110247612E0;1,209971309E0
4,218396239E1;1,425454021E0;9,876163602E-1;1,814880610E0
4,228396239E1;1,042594314E0;-1,262963861E-1;1,958586693E0
4,238396239E1;4,560109079E-1;-3,538436890E-1;1,230740786E0
4,248396239E1;-4,489859566E-2;-1,298088674E-2;-4,346306324E-1
4,258396239E1;-1,559233516E-1;-1,006400511E-1;-8,778133392E-1
4,268396239E1;-9,399688840E-1;-5,415320396E-1;-1,355815411E0
4,278396239E1;-1,208291411E0;-3,181080818E-1;-1,545336366E0
4,288396239E1;-1,547627091E0;-1,123228431E0;-1,059545755E0
4,298396239E1;-8,726209998E-1;2,086104751E-1;-9,784533978E-1
4,308396239E1;9,766207933E-1;8,747590184E-1;8,817839622E-1
4,318396239E1;1,281900764E0;6,551529765E-1;1,361924052E0
4,328396239E1;1,231962442E0;1,018617824E-1;1,568701982E0
4,338396239E1;1,017854214E0;4,176791012E-1;1,365131140E0
4,348396239E1;7,925976813E-2;-8,304712772E-1;2,736676335E-1
4,358396239E1;4,230241850E-2;-8,654433489E-1;-5,186246037E-1
4,368396239E1;-1,505782902E-1;1,620320082E-1;-1,180955291E0
4,378396239E1;-8,255843520E-1;-3,023782969E-1;-1,302059293E0
4,388396239E1;-1,519985437E0;-3,827070892E-1;-9,439395070E-1
4,398396239E1;-1,356884480E0;-7,976372838E-1;-6,866125464E-1
4,408396239E1;-5,264131427E-1;2,293798923E-1;-5,461135507E-1
4,418396239E1;6,033821702E-1;6,721044779E-1;1,162171140E-1
4,428396239E1;1,710575461E0;7,655668855E-1;1,454164743E0
4,438396239E1;6,879869699E-1;2,368630022E-1;1,231046200E0
4,448396239E1;5,415320396E-1;3,631593883E-1;1,067945123E0
4,458396239E1;3,448334336E-1;-2,240653753E0;1,327104717E-1
4,468396239E1;6,872233935E-3;4,295909703E-1;-8,026769161E-1
4,478396239E1;5,497787148E-3;-2,504547499E-2;-9,599747062E-1
4,488396239E1;-9,196576476E-1;-1,024268270E0;-1,392009139E0
4,498396239E1;-1,316109180E0;-5,484042764E-1;-8,581129313E-1
4,508396239E1;-1,320385218E0;-1,037249207E0;-4,663956165E-1
4,518396239E1;-4,265366495E-1;-1,075122803E-1;-4,448626041E-1
4,528396239E1;1,737911552E-1;4,143193662E-1;5,238169432E-2
4,538396239E1;1,138041973E0;1,047328472E0;1,393994451E0
4,548396239E1;1,287398458E0;1,148732066E0;1,661706209E0
4,558396239E1;9,395107627E-1;3,254384696E-1;1,806939363E0
4,568396239E1;5,580254197E-1;2,232712507E-1;8,391761184E-1
4,578396239E1;-2,064724565E-1;-1,178969979E0;3,882048726E-1
4,588396239E1;-9,476047158E-1;3,162754774E-1;-1,061836481E0
4,598396239E1;-7,852672935E-1;-3,205515444E-1;-5,832235813E-1
4,608396239E1;-7,886270285E-1;-7,203628421E-1;-8,697193861E-1
4,618396239E1;-1,370323420E0;-5,809328556E-1;-5,057964325E-1
4,628396239E1;-1,113760114E0;-6,925684810E-1;-9,627236128E-1
4,638396239E1;5,933028460E-1;9,086620808E-1;-4,502076805E-1
4,648396239E1;9,847147465E-1;7,000515461E-1;2,467895597E-1
4,658396239E1;1,276861072E0;8,066475391E-1;1,876272559E0
4,668396239E1;9,975429177E-1;7,764097452E-1;1,934915662E0
4,678396239E1;7,825183868E-1;3,856086731E-1;1,213789225E0
4,688396239E1;-3,769038618E-1;6,588181853E-1;-7,205155492E-1
4,698396239E1;-3,200933933E-1;1,031140566E0;-1,037401915E0
4,708396239E1;-5,855143666E-1;-5,251913667E-1;-1,719280243E0
4,718396239E1;-1,013425469E0;-6,012440920E-1;-1,666134953E0
4,728396239E1;-1,499826908E0;-4,897612035E-1;-1,439045787E0
4,738396239E1;-4,818199575E-1;-4,138612002E-2;-7,411322594E-1
4,748396239E1;3,161227703E-1;1,108109593E0;6,039929986E-1
4,758396239E1;8,842274547E-1;7,470881939E-1;1,258077025E0
4,768396239E1;1,318858027E0;6,614143252E-1;2,234697819E0
4,778396239E1;8,449793458E-1;4,137084782E-1;1,691791296E0
4,788396239E1;2,968805134E-1;-8,237518072E-1;2,330450863E-1
4,798396239E1;2,977968007E-2;-4,561636150E-1;-4,642575979E-1
4,808396239E1;-2,420553565E-1;-5,115996599E-1;-9,088147879E-1
4,818396239E1;-5,085453391E-1;-2,825251818E-1;-1,467450976E0
4,828396239E1;-1,211803913E0;-7,663304210E-1;-1,062905550E0
4,838396239E1;-1,494787216E0;-9,335548282E-1;-1,111469269E0
4,848396239E1;-3,627012372E-1;4,834998548E-1;-4,422664344E-1
4,858396239E1;4,442517459E-1;8,110763431E-1;2,981022298E-1
4,868396239E1;1,355968118E0;7,834346890E-1;1,601077795E0
4,878396239E1;1,269836187E0;7,536550164E-1;1,876119852E0
4,888396239E1;8,553640842E-1;2,626720630E-2;1,310000539E0
4,898396239E1;1,598939747E-1;-4,363104999E-1;5,679519773E-1
4,908396239E1;-9,590584040E-2;-3,920227587E-1;-6,017022729E-1
4,918396239E1;-3,671300113E-1;-4,422664344E-1;-1,016785145E0
4,928396239E1;-1,131780624E0;-7,541131377E-1;-1,487609625E0
4,938396239E1;-1,498452425E0;-7,535023093E-1;-8,555167913E-1
4,948396239E1;-1,240972757E0;-1,008385777E0;-7,625125647E-1
4,958396239E1;5,062545538E-1;6,853908300E-1;-2,729040384E-1
4,968396239E1;9,662361145E-1;1,100015640E0;5,966626406E-1
4,978396239E1;1,061072946E0;1,077566266E0;1,780366778E0
4,988396239E1;7,954992652E-1;6,550002694E-1;2,013717175E0
4,998396239E1;5,803219676E-1;-1,941024363E-1;1,184925914E0
5,008396239E1;1,256855279E-1;-8,920159936E-1;2,254092693E-1
5,018396239E1;-1,548543423E-1;-3,946189582E-1;-6,146831512E-1
5,028396239E1;-3,393356502E-1;-3,608686328E-1;-1,019839525E0
5,038396239E1;-1,111621976E0;-9,834930301E-2;-1,289078355E0
5,048396239E1;-1,496619821E0;-1,142776132E0;-1,286329508E0
5,058396239E1;-8,837692738E-1;3,054326214E-2;-6,426302195E-1
5,068396239E1;-6,872233935E-3;3,891211748E-1;-2,037235647E-1
5,078396239E1;1,032514930E0;1,138500094E0;1,074817419E0
5,088396239E1;1,147204876E0;7,341073155E-1;1,380708218E0
5,098396239E1;9,558513761E-1;4,447098970E-1;1,987908244E0
5,108396239E1;4,175263941E-1;-1,860084683E-1;1,405753613E0
5,118396239E1;-3,058907688E-1;-3,503312171E-1;-4,712825418E-1
5,128396239E1;-2,855795026E-1;-3,646865487E-1;-8,309294581E-1
5,138396239E1;-7,854200006E-1;-3,239113092E-1;-1,501812220E0
5,148396239E1;-1,163392901E0;-4,240931869E-1;-1,511433363E0
5,158396239E1;-1,102153659E0;-8,703302741E-1;-1,096655846E0
5,168396239E1;-7,608326674E-1;-6,082690954E-1;-6,948592067E-1
5,178396239E1;8,512406945E-1;1,482875347E-1;9,541715384E-1
5,188396239E1;1,263574719E0;7,742717117E-2;1,122312188E0
5,198396239E1;1,657582879E0;9,170614481E-1;1,812742591E0
5,208396239E1;4,993823543E-2;9,263771176E-1;9,563095570E-1
5,218396239E1;1,692096740E-1;-5,800165534E-1;4,598288238E-1
5,228396239E1;-2,261728644E-1;-3,430008292E-1;-4,135557711E-1
5,238396239E1;2,948952019E-1;1,333366156E0;-1,083674908E0
5,248396239E1;-2,533563673E-1;-3,375030309E-2;-9,352346659E-1
5,258396239E1;-6,267477274E-1;1,614211351E-1;-1,000902653E0
5,268396239E1;-4,569272101E-1;1,524108797E-1;-5,603161454E-1
5,278396239E1;-9,896016866E-2;1,853975952E-1;-3,767511547E-1
5,288396239E1;-1,382082552E-1;4,291328415E-2;-1,933388561E-1
5,298396239E1;2,748893574E-3;-1,939497143E-1;1,125519201E-1
5,308396239E1;-5,757404864E-2;1,968513280E-1;9,407325089E-2
5,318396239E1;-1,568396538E-1;7,987063378E-2;2,871066704E-2
5,328396239E1;-4,839579761E-1;4,657847434E-2;2,422080636E-1
5,338396239E1;-5,027421117E-1;-6,017022580E-2;4,308127165E-1
5,348396239E1;-1,916589737E-1;1,267545372E-1;3,233004212E-1
5,358396239E1;-6,658431143E-2;-1,632537395E-1;9,621127509E-3
5,368396239E1;8,185594529E-2;-1,912008226E-1;-1,527163088E-1
5,378396239E1;1,009454802E-1;2,916881628E-2;-7,712173462E-2
5,388396239E1;-7,666359097E-2;-5,067127347E-1;1,339322031E-1
5,398396239E1;-2,032654136E-1;-3,510948122E-1;1,563815027E-1
5,408396239E1;1,069014147E-2;-1,867720485E-1;-8,567385375E-2
5,418396239E1;8,261952549E-2;-4,773911834E-1;-3,359758761E-3
5,428396239E1;6,291911751E-2;-4,825835302E-2;-4,514294267E-1
5,438396239E1;2,034181207E-1;-3,329215646E-1;-1,553124934E-1
5,448396239E1;1,278235465E-1;1,922698319E-1;-6,780604273E-2
5,458396239E1;-1,313360333E-1;1,444696337E-1;-6,414084882E-2
5,468396239E1;-1,343903542E-1;-2,345722616E-1;-1,850921661E-1
5,478396239E1;3,680463135E-2;4,780020565E-2;5,558873713E-2
5,488396239E1;2,367102914E-2;5,146539584E-2;3,344487399E-2
5,498396239E1;-8,567385375E-2;1,374446787E-3;-4,825835302E-2
5,508396239E1;-4,077525437E-2;3,420845419E-2;4,841107130E-2
5,518396239E1;-2,199114859E-2;1,056796908E-1;1,363756657E-1
5,528396239E1;-7,528914511E-2;7,803803682E-2;8,659014851E-2
5,538396239E1;-6,918048859E-2;4,734205548E-3;-5,558873713E-2
5,548396239E1;-1,794416606E-1;2,328923792E-1;1,073595658E-1
5,558396239E1;-3,665191308E-2;1,774563491E-1;2,573269904E-1
5,568396239E1;8,307767659E-2;6,154467165E-2;1,774563491E-1
5,578396239E1;-1,183551401E-1;1,111774743E-1;-2,504547499E-2
5,588396239E1;-3,365867436E-1;2,649627924E-1;3,492622077E-1
5,598396239E1;-2,559525371E-1;6,304129362E-1;5,836817622E-1
5,608396239E1;-5,971207842E-2;4,312708676E-1;6,478226185E-1
5,618396239E1;-1,174388453E-1;6,742424965E-1;5,629123449E-1
5,628396239E1;-2,000583708E-2;7,047857642E-1;3,460551500E-1
5,638396239E1;2,626720630E-2;2,290744567E-3;1,557706445E-1
5,648396239E1;5,039638374E-3;8,555167913E-1;3,504839242E-1
5,658396239E1;-6,473644376E-1;1,887420893E0;-4,978551716E-2
5,668396239E1;-8,495608568E-1;3,758348525E-1;-3,442225754E-1
5,678396239E1;-1,221272349E0;-1,879937798E-1;-4,219551682E-1
5,688396239E1;-3,185662329E-1;9,004153609E-1;5,251913667E-1
5,698396239E1;-5,925392732E-2;9,717338681E-1;9,358455539E-1
5,708396239E1;4,780020416E-1;1,257160664E0;1,611920714E0
5,718396239E1;5,500841737E-1;1,322217822E0;1,545794487E0
5,728396239E1;9,269879758E-2;1,082911372E0;8,739954233E-1
5,738396239E1;-1,047633886E-1;3,068070710E-1;1,334282398E0
5,748396239E1;-7,686212063E-1;1,133155003E-1;-3,187189400E-1
5,758396239E1;-7,498371005E-1;3,909537569E-2;-6,705773473E-1
5,768396239E1;-8,552113175E-2;-3,732386529E-1;-2,709187269E-1
5,778396239E1;-4,663956165E-1;2,616030276E-1;-9,108000994E-1
5,788396239E1;-1,102611780E0;-7,061602473E-1;-6,910412908E-1
5,798396239E1;-1,398728728E0;-3,746131063E-1;-4,560109079E-1
5,808396239E1;-1,438129544E0;-2,776382565E-1;-5,616905689E-1
5,818396239E1;-1,162934661E0;-4,109596014E-1;-6,296493411E-1
5,828396239E1;3,631593883E-1;7,212791443E-1;4,028656185E-1
5,838396239E1;1,004109740E0;1,337184072E0;1,130406141E0
5,848396239E1;1,036943793E0;6,290385127E-1;1,842674971E0
5,858396239E1;7,521278262E-1;4,544837475E-1;2,033723116E0
5,868396239E1;7,544185966E-2;-2,324342281E-1;8,240572214E-1
5,878396239E1;-3,234531581E-1;-5,794056654E-1;-1,592831165E-1
5,888396239E1;-8,979719132E-2;3,126102984E-1;-8,657487631E-1
5,898396239E1;-1,076650023E-1;-6,415612102E-1;-1,120174170E0
5,908396239E1;-1,342376351E0;-6,777549982E-1;-1,165683627E0
5,918396239E1;-1,747990847E0;-7,576256394E-1;-9,350819588E-1
5,928396239E1;-8,272642493E-1;-1,760819107E-1;-8,370380998E-1
5,938396239E1;7,444919944E-1;7,521278262E-1;7,002043128E-1
5,948396239E1;1,174082994E0;1,169043422E0;1,287093043E0
5,958396239E1;1,149953842E0;4,514294267E-1;2,098627567E0
5,968396239E1;6,927211881E-1;1,237002090E-1;2,087479353E0
5,978396239E1;-1,478293836E-1;-9,077457786E-1;-8,368854225E-2
5,988396239E1;-1,579086632E-1;-1,382082552E-1;-9,225592613E-1
5,998396239E1;-3,387247920E-1;-4,821254015E-1;-1,475239515E0
6,008396239E1;-1,108262300E0;-5,088507533E-1;-1,606422901E0
6,018396239E1;-1,732413888E0;-8,998045325E-1;-1,029002547E0
6,028396239E1;-1,232267857E0;-7,333437204E-1;-9,059131742E-1
6,038396239E1;2,622139156E-1;5,526803136E-1;3,245221674E-1
6,048396239E1;8,633053303E-1;7,715228200E-1;1,300837517E0
6,058396239E1;9,908234477E-1;2,017382532E-1;2,193311691E0
6,068396239E1;6,342308521E-1;-1,120937690E-1;2,313346624E0
6,078396239E1;-1,942551434E-1;-1,300837517E0;1,730275750E-1
6,088396239E1;-1,449277848E-1;-3,753767014E-1;-6,650795341E-1
6,098396239E1;-2,550362349E-1;-7,238753438E-1;-1,744325757E0
6,108396239E1;-7,773260474E-1;-1,054658890E0;-1,929875970E0
6,118396239E1;-1,372003317E0;-1,343445420E0;-1,553277612E0
6,128396239E1;-4,502076805E-1;-4,810563922E-1;-1,289842010E0
6,138396239E1;1,155146122E0;8,697193861E-1;3,943135142E-1
6,148396239E1;1,405600905E0;1,014647126E0;1,370781660E0
6,158396239E1;1,070388675E0;3,445279896E-1;2,260506868E0
6,168396239E1;5,097670555E-1;-2,386955917E-1;1,700190663E0
6,178396239E1;-5,009094998E-2;-3,904955983E-1;-6,099489331E-1
6,188396239E1;-5,044219494E-1;-8,602510095E-1;-1,790293336E0
6,198396239E1;-1,067639709E0;-1,190423608E0;-2,015702486E0
6,208396239E1;-1,477530360E0;-1,541365743E0;-1,658499122E0
6,218396239E1;-3,918700516E-1;-2,503020465E-1;-1,221577764E0
6,228396239E1;1,265865445E0;8,237518072E-1;6,811147332E-1
6,238396239E1;1,619556427E0;1,116050839E0;1,509295344E0
6,248396239E1;1,041219831E0;-6,545420885E-1;1,683086514E0
6,258396239E1;4,118759036E-1;-7,560984492E-1;6,772968173E-1
6,268396239E1;1,759291887E-1;-6,811147183E-2;-1,758528352E0
6,278396239E1;-2,999348342E-1;-1,199281216E0;-1,620625496E0
6,288396239E1;-1,383609772E0;-8,240572214E-1;-1,929112434E0
6,298396239E1;-1,184620380E0;-1,165225506E0;-1,459967971E0
6,308396239E1;6,598871946E-1;2,915354371E-1;-2,900082767E-1
6,318396239E1;1,433242559E0;1,147357702E0;8,144360781E-1
6,328396239E1;1,731039405E0;5,259549618E-1;2,099849224E0
6,338396239E1;1,182482362E0;-2,767219543E-1;1,829541445E0
6,348396239E1;2,385428846E-1;-9,196576476E-1;-5,745187402E-1
6,358396239E1;5,265658498E-1;2,838996351E-1;-1,250593901E0
6,368396239E1;-3,614795208E-1;-6,107125282E-1;-1,892002344E0
6,378396239E1;-1,145219564E0;-8,417723179E-1;-1,717600346E0
6,388396239E1;-1,188896537E0;-7,797694802E-1;-1,100626469E0
6,398396239E1;6,414085161E-3;5,164865851E-1;-5,566509366E-1
6,408396239E1;1,328937292E0;1,781283021E0;1,613295078E0
6,418396239E1;1,037249207E0;6,591235995E-1;2,492024660E0
6,428396239E1;5,664247870E-1;-2,484694421E-1;1,873981833E0
6,438396239E1;-3,478877544E-1;-2,032654136E-1;-8,967501521E-1
6,448396239E1;1,452332139E-1;7,133378983E-1;-1,138194680E0
6,458396239E1;-7,176139355E-1;-1,452332139E-1;-1,634828091E0
6,468396239E1;-1,534035325E0;-1,260520458E0;-1,452026725E0
6,478396239E1;-1,068250656E0;-5,476406813E-1;-8,349000812E-1
6,488396239E1;6,414084882E-2;4,205807149E-1;-1,841758788E-1
6,498396239E1;1,192867160E0;1,222494125E0;1,963015437E0
6,508396239E1;1,267545342E0;9,567676783E-1;2,389552116E0
6,518396239E1;4,288274050E-1;-1,950187236E-1;1,679115891E0
6,528396239E1;-2,732094824E-1;-8,510879874E-1;2,283108830E-1
6,538396239E1;-4,413501546E-2;3,859141171E-1;-1,222035885E0
6,548396239E1;-4,506658316E-1;-7,180721164E-1;-1,763109803E0
6,558396239E1;-1,577406764E0;-9,841039181E-1;-1,371392488E0
6,568396239E1;-1,594205618E0;-8,993463516E-1;-1,263880134E0
6,578396239E1;2,131919712E-1;-4,581489484E-4;1,055269688E-1
6,588396239E1;9,051495790E-1;8,355109096E-1;1,399797678E0
6,598396239E1;1,217912555E0;9,104946256E-1;2,468200922E0
6,608396239E1;8,255843520E-1;-2,602286041E-1;2,423760653E0
6,618396239E1;2,443460934E-2;-1,165836334E0;-1,343903504E-2
6,628396239E1;-6,261368841E-2;3,112358451E-1;-8,600982428E-1
6,638396239E1;-2,635883391E-1;-5,436700583E-1;-2,196060658E0
6,648396239E1;-8,813258410E-1;-9,108000994E-1;-2,642755747E0
6,658396239E1;-9,845620394E-1;-2,338086665E-1;-1,121701360E0
6,668396239E1;5,100724697E-1;1,026253626E-1;6,831000447E-1
6,678396239E1;1,574199796E0;1,979356170E0;1,844202161E0
6,688396239E1;1,227839112E0;3,318525553E-1;2,197893143E0
6,698396239E1;8,220719099E-1;5,757404864E-2;1,699885249E0
6,708396239E1;-8,048149943E-2;-4,091269970E-1;-8,503243923E-1
6,718396239E1;-3,987422884E-1;6,658431292E-1;-1,023504734E0
6,728396239E1;-7,724391222E-1;1,131627858E-1;-1,487762332E0
6,738396239E1;-1,292285442E0;-1,150564671E0;-1,052826285E0
6,748396239E1;-1,383609772E0;-1,034042120E0;-1,139874578E0
6,758396239E1;-5,455026627E-1;-2,012801021E-1;-7,718282342E-1
6,768396239E1;9,818131924E-1;1,338711143E0;1,411862254E0
6,778396239E1;1,029460669E0;7,742717266E-1;1,712713480E0
6,788396239E1;6,327036619E-1;-1,498146951E-1;2,377334833E0
6,798396239E1;2,113593817E-1;-2,787072659E-1;1,380249977E0
6,808396239E1;-9,361509979E-2;-6,612616181E-1;-5,409211516E-1
6,818396239E1;-2,122756653E-2;-2,209804952E-1;-9,017898440E-1
6,828396239E1;-8,049677014E-1;-7,367035151E-1;-1,456150055E0
6,838396239E1;-1,221119642E0;-8,764389157E-1;-1,674687028E0
6,848396239E1;-1,059851170E0;-9,329439402E-1;-9,019425511E-1
6,858396239E1;-1,328631863E-2;5,904012322E-1;-5,170974135E-1
6,868396239E1;1,112080216E0;1,085202098E0;1,405600905E0
6,878396239E1;1,220203280E0;1,140790820E0;1,894904017E0
6,888396239E1;6,466008425E-1;-1,664607823E-1;2,070985794E0
6,898396239E1;4,184427112E-2;-9,158397317E-1;1,207222462E0
6,908396239E1;-1,036943719E-1;2,069306076E-1;-7,661777139E-1
6,918396239E1;-1,108720452E-1;-6,438519955E-1;-1,554499388E0
6,928396239E1;-4,741841555E-1;-4,929682612E-1;-1,419192672E0
6,938396239E1;-1,382387996E0;-1,003957033E0;-1,435991526E0
6,948396239E1;-9,265298843E-1;-1,188285589E0;-1,190118194E0
6,958396239E1;7,020368576E-1;8,834638596E-1;5,864306092E-1
6,968396239E1;1,094212413E0;9,984592199E-1;1,459509730E0
6,978396239E1;1,000139117E0;7,675521970E-1;2,102292776E0
6,988396239E1;4,422664344E-1;1,285871267E-1;2,105347157E0
6,998396239E1;-4,521929920E-1;-1,241736293E0;-3,688098788E-1
7,008396239E1;-1,221730490E-3;4,909829497E-1;-9,187413454E-1
7,018396239E1;-6,018549800E-1;-3,454442918E-1;-1,437976837E0
7,028396239E1;-1,393841743E0;-9,401215911E-1;-1,860542774E0
7,038396239E1;-1,630246639E0;-1,173319459E0;-1,405295491E0
7,048396239E1;-3,017674387E-1;2,463314086E-1;-8,805622458E-1
7,058396239E1;1,169348836E0;1,317636371E0;1,236238599E0
7,068396239E1;1,319163442E0;1,029918790E0;2,126269102E0
7,078396239E1;6,930266023E-1;-1,882992089E-1;2,172389507E0
7,088396239E1;4,651738703E-1;-2,626720630E-2;1,118799686E0
7,098396239E1;6,398813426E-2;3,254384696E-1;-7,617489696E-1
7,108396239E1;-5,696318299E-2;1,960877478E-1;-1,260367751E0
7,118396239E1;-5,513058901E-1;-8,226827979E-1;-1,723250866E0
7,128396239E1;-1,000902653E0;-4,822781086E-1;-1,433547974E0
7,138396239E1;-1,025184631E0;-6,933320761E-1;-9,550877810E-1
7,148396239E1;-3,039054573E-2;-1,533271819E-1;-2,829833329E-1
7,158396239E1;9,327912331E-1;1,332144380E0;1,522123456E0
7,168396239E1;7,261660695E-1;5,244278312E-1;2,378709316E0
7,178396239E1;4,227187634E-1;-2,464841306E-1;1,976607203E0
7,188396239E1;-9,269879758E-2;-9,054549932E-1;-1,656972021E-1
7,198396239E1;1,061378345E-1;1,831068546E-1;-1,196074128E0
7,208396239E1;-1,125519201E-1;-7,223481536E-1;-1,503797531E0
7,218396239E1;-6,769914031E-1;-3,898847401E-1;-1,930334210E0
7,228396239E1;-1,375210404E0;-1,306488037E0;-1,269836187E0
7,238396239E1;-6,963863969E-1;-6,180428863E-1;-7,593054771E-1
7,248396239E1;1,000291824E0;1,360855103E0;1,049619198E0
7,258396239E1;1,121243119E0;1,049924612E0;1,557400942E0
7,268396239E1;6,667594314E-1;3,006984293E-1;2,142609835E0
7,278396239E1;1,518000066E-1;-2,826778889E-1;1,626886845E0
7,288396239E1;-1,240056455E-1;-9,564622641E-1;-2,860376537E-1
7,298396239E1;2,101376504E-1;1,247692257E-1;-1,195157886E0
7,308396239E1;-9,022479653E-1;-7,067710757E-1;-2,384207010E0
7,318396239E1;-1,201571941E0;-6,166684628E-1;-2,384359837E0
7,328396239E1;-1,160491228E0;-9,604328871E-1;-5,549710989E-1
7,338396239E1;-2,214386500E-2;3,869831264E-1;-1,765400618E-1
7,348396239E1;1,063821793E0;1,133765936E0;1,440420270E0
7,358396239E1;1,109483957E0;1,057713151E0;2,292577267E0
7,368396239E1;3,581197560E-1;6,673702598E-2;1,971262097E0
7,378396239E1;1,779145002E-1;-2,043344229E-1;1,031751394E0
7,388396239E1;-3,466660157E-2;3,564398587E-1;-1,089783549E0
7,398396239E1;-1,858557463E-1;1,734857261E-1;-1,072221279E0
7,408396239E1;-1,004720569E0;-8,420777321E-1;-1,639867783E0
7,418396239E1;-1,231046200E0;1,551597714E-1;-9,885326624E-1
7,428396239E1;-2,211332172E-1;-1,985312104E-1;-3,104722500E-1
7,438396239E1;7,961101532E-1;1,453859329E0;7,941248417E-1
7,448396239E1;9,575312734E-1;1,341612816E0;1,559080839E0
7,458396239E1;3,750712574E-1;2,903137207E-1;2,570979118E0
7,468396239E1;2,857322097E-1;-3,316998184E-1;2,181705236E0
7,478396239E1;2,478585690E-1;-2,765692472E-1;-6,695083380E-1
7,488396239E1;8,155050874E-2;4,856378585E-2;-8,182539940E-1
7,498396239E1;-3,830125034E-1;-6,708827615E-1;-1,484249830E0
7,508396239E1;-8,295549750E-1;-4,546364546E-1;-1,497536182E0
7,518396239E1;-1,659262776E0;-1,079246163E0;-1,370781660E0
7,528396239E1;-9,882272482E-1;-2,153300047E-1;-9,584475756E-1
7,538396239E1;4,233296216E-1;5,548183322E-1;6,159048676E-1
7,548396239E1;8,509352803E-1;1,103069901E0;1,381777167E0
7,558396239E1;9,841039181E-1;5,293147564E-1;2,562121630E0
7,568396239E1;6,177374721E-1;-1,201877370E-1;2,278680086E0
7,578396239E1;-1,198823079E-1;-7,832819819E-1;-3,420845419E-2
7,588396239E1;-3,176499158E-2;-1,069014147E-2;-4,671591818E-1
7,598396239E1;-1,441642046E-1;-2,587014437E-1;-1,937970042E0
7,608396239E1;-5,896376967E-1;-8,116871715E-1;-1,868942261E0
7,618396239E1;-1,306488037E0;-8,101600409E-1;-1,238682032E0
7,628396239E1;3,074179292E-1;9,359982610E-1;-1,424843222E-1
7,638396239E1;6,088799238E-1;1,367574573E0;5,534439087E-1
7,648396239E1;7,661777139E-1;1,075733662E0;2,362826824E0
7,658396239E1;7,307475209E-1;9,153815508E-1;2,563954115E0
7,668396239E1;8,857546002E-2;-3,692680299E-1;1,193783402E0
7,678396239E1;-7,635815535E-3;-7,916813493E-1;-1,122464910E-1
7,688396239E1;-2,189951837E-1;-1,314887404E-1;-1,087492824E0
7,698396239E1;-3,003929853E-1;-8,277224004E-2;-1,833664775E0
7,708396239E1;-1,393536329E0;-5,067127347E-1;-1,448666930E0
7,718396239E1;-1,613600492E0;-1,288314819E0;-1,555110216E0
7,728396239E1;6,658431143E-2;1,837177277E-1;4,382958263E-2
7,738396239E1;8,730791807E-1;1,694234729E0;1,201724648E0
7,748396239E1;1,002735257E0;1,005331516E0;2,449111462E0
7,758396239E1;5,422956347E-1;3,788891733E-1;2,354427338E0
7,768396239E1;-3,078760803E-1;-7,342600226E-1;6,188064814E-1
7,778396239E1;-2,167044431E-1;-4,499022663E-1;-7,168503404E-1
7,788396239E1;-2,875648141E-1;-2,309070677E-1;-1,370170712E0
7,798396239E1;-5,827654600E-1;-3,480404615E-1;-2,018298864E0
7,808396239E1;-1,352455616E0;-9,170614481E-1;-1,277013779E0
7,818396239E1;1,209513173E-1;2,168571651E-1;-5,175555944E-1
7,828396239E1;6,973026991E-1;3,439171314E-1;6,569855809E-1
7,838396239E1;9,631817937E-1;1,069319606E0;2,024865627E0
7,848396239E1;7,037167549E-1;5,494732857E-1;2,410932302E0
7,858396239E1;3,857614100E-1;-6,320928335E-1;9,983065128E-1
7,868396239E1;8,552113175E-2;-7,000515461E-1;-4,182899892E-1
7,878396239E1;-4,092797264E-2;2,196060568E-1;-1,149953842E0
7,888396239E1;-2,640464902E-1;-5,876523852E-1;-1,754099607E0
7,898396239E1;-1,314581990E0;-2,675589919E-1;-1,989740849E0
7,908396239E1;-1,398270488E0;-1,111316562E0;-1,356578946E0
7,918396239E1;2,776382565E-1;4,934264123E-1;-1,435533352E-2
7,928396239E1;6,966918111E-1;1,650099754E0;8,181012869E-1
7,938396239E1;6,650795341E-1;6,333145499E-1;2,410932302E0
7,948396239E1;4,796819389E-1;2,594650090E-1;2,474615097E0
7,958396239E1;2,194533348E-1;-8,182539940E-1;9,437867999E-1
7,968396239E1;2,087631971E-1;-7,428121567E-1;-4,761694670E-1
7,978396239E1;-9,346238524E-2;2,735149264E-1;-1,240056396E0
7,988396239E1;-2,220495194E-1;-3,717114925E-1;-1,713935137E0
7,998396239E1;-1,490358472E0;-7,681630254E-1;-1,492343783E0
8,008396239E1;-1,606270194E0;-7,835873961E-1;-1,519527316E0
8,018396239E1;4,152356386E-1;2,484694421E-1;6,185010448E-2
8,028396239E1;9,173668623E-1;8,454375267E-1;9,676105380E-1
8,038396239E1;1,021366715E0;9,954048991E-1;2,098016739E0
8,048396239E1;5,667302608E-1;2,310597748E-1;2,398715019E0
8,058396239E1;8,491026610E-2;-3,793473244E-1;7,599163651E-1
8,068396239E1;6,475171447E-2;4,715879560E-1;-1,186147571E0
8,078396239E1;-1,293507218E-1;-4,257730842E-1;-1,127657294E0
8,088396239E1;-1,343903542E0;-9,521862268E-1;-1,666134953E0
8,098396239E1;-1,977370739E0;-1,474781394E0;-1,362382174E0
8,108396239E1;-1,372919679E-1;5,586362481E-1;-6,739370823E-1
8,118396239E1;5,042692423E-1;9,414960742E-1;-4,627304152E-2
8,128396239E1;8,361217976E-1;1,197601318E0;1,878868818E0
8,138396239E1;7,637342811E-1;8,677340746E-1;2,282956123E0
8,148396239E1;1,744020283E-1;-3,833179474E-1;1,534951687E0
8,158396239E1;8,445212245E-2;-1,041219831E0;5,703954101E-1
8,168396239E1;-2,443460934E-2;2,583959997E-1;-1,169959664E0
8,178396239E1;-3,167336285E-1;7,803803682E-2;-1,197906733E0
8,188396239E1;-7,502952218E-1;-5,607742667E-1;-1,953088880E0
8,198396239E1;-1,357342601E0;-6,197227836E-1;-1,665676832E0
8,208396239E1;-3,060434759E-1;6,719517708E-2;-5,424483418E-1
8,218396239E1;3,909537494E-1;7,104362845E-1;2,417499274E-1
8,228396239E1;7,446447611E-1;1,045343161E0;2,222327709E0
8,238396239E1;7,279986739E-1;1,169959664E0;2,240959167E0
8,248396239E1;3,486513495E-1;-1,081995010E0;1,697747231E0
8,258396239E1;-3,762930036E-1;-1,297630548E0;9,392052889E-2
8,268396239E1;-1,478293836E-1;-2,295326144E-1;-2,948952019E-1
8,278396239E1;2,322815061E-1;-8,597928286E-2;-1,848783612E0
8,288396239E1;-8,164213896E-1;4,645630121E-1;-1,785864592E0
8,298396239E1;-1,317941785E0;-6,305656433E-1;-2,160935879E0
8,308396239E1;-4,210388660E-1;-1,695151068E-2;-4,494441152E-1
8,318396239E1;4,726569951E-1;9,636399150E-1;1,005789638E0
8,328396239E1;8,408560157E-1;9,915869832E-1;1,986075640E0
8,338396239E1;4,134030640E-1;1,843285859E-1;2,191784382E0
8,348396239E1;1,887573600E-1;-5,421429276E-1;1,482722640E0
8,358396239E1;2,015855350E-2;-4,550946057E-1;-5,549710989E-1
8,368396239E1;1,169806942E-1;2,641992271E-1;-1,216385365E0
8,378396239E1;-4,434881806E-1;-4,308127165E-1;-1,569007397E0
8,388396239E1;-9,703594446E-1;-6,110179424E-1;-1,745547414E0
8,398396239E1;-8,959866166E-1;-7,284567952E-1;-1,071304917E0
8,408396239E1;-2,431243658E-1;-2,290744707E-2;-3,094032407E-1
8,418396239E1;8,684976697E-1;1,339016676E0;1,851379871E0
8,428396239E1;1,005942345E0;1,372461438E0;2,234392405E0
8,438396239E1;5,250386596E-1;-2,214386500E-2;2,220953226E0
8,448396239E1;2,229658216E-1;-7,376197577E-1;1,105207920E0
8,458396239E1;-2,828305960E-1;-3,955352306E-2;-9,712757468E-1
8,468396239E1;-1,643227488E-1;-5,543602258E-2;-7,454082966E-1
8,478396239E1;-5,821545720E-1;-9,132435173E-2;-1,657735586E0
8,488396239E1;-8,845328689E-1;5,955935922E-3;-2,119396925E0
8,498396239E1;-6,763805151E-1;-6,181956530E-1;-8,103127480E-1
8,508396239E1;6,215553731E-2;2,825251818E-1;3,054326226E-4
8,518396239E1;7,527387142E-1;1,244943380E0;1,614669561E0
8,528396239E1;7,350236177E-1;7,907650471E-1;2,358397961E0
8,538396239E1;2,892446816E-1;-2,084577680E-1;1,893071413E0
8,548396239E1;4,184427112E-2;-2,788599730E-1;6,667594314E-1
8,558396239E1;1,134682223E-1;9,590584040E-2;-1,160949349E0
8,568396239E1;-6,737843752E-1;-4,138612151E-1;-1,933693886E0
8,578396239E1;-1,062447429E0;-2,664899528E-1;-2,125200272E0
8,588396239E1;-1,089325428E0;-1,058018565E0;-1,152855396E0
8,598396239E1;-3,906483352E-1;2,860376537E-1;-6,090326309E-1
8,608396239E1;7,446447611E-1;8,666650653E-1;1,683544636E0
8,618396239E1;7,015787363E-1;1,035874724E0;2,307848930E0
8,628396239E1;1,389718503E-1;-2,510656118E-1;1,985312104E0
8,638396239E1;-7,559457421E-2;-2,307543457E-1;1,398270488E0
8,648396239E1;-1,215621829E-1;-2,577851415E-1;-7,751879692E-1
8,658396239E1;-4,764748737E-2;9,407325089E-2;-1,365436554E0
8,668396239E1;-4,746423066E-1;-8,011497855E-1;-1,818087697E0
8,678396239E1;-1,080162525E0;-7,713701129E-1;-1,470352650E0
8,688396239E1;-5,952881575E-1;-3,394883573E-1;-9,702067375E-1
8,698396239E1;2,956587672E-1;4,546364546E-1;-1,383609772E-1
8,708396239E1;7,745771408E-1;1,554957509E0;1,720196486E0
8,718396239E1;6,488916278E-1;6,298020482E-1;2,315790176E0
8,728396239E1;3,321579695E-1;-6,093381047E-1;2,103209019E0
8,738396239E1;1,320996135E-1;-5,470298529E-1;7,968736887E-1
8,748396239E1;3,543018550E-2;4,282165468E-1;-9,193521738E-1
8,758396239E1;-6,658431143E-2;2,281581759E-1;-1,631010175E0
8,768396239E1;-7,431175709E-1;-6,407976151E-1;-1,658957243E0
8,778396239E1;-1,086271167E0;-6,725626588E-1;-1,477683067E0
8,788396239E1;-2,486221492E-1;-3,342960179E-1;-7,628179789E-1
8,798396239E1;3,874412775E-1;6,097962260E-1;3,817907767E-3
8,808396239E1;8,623890281E-1;1,153771758E0;1,748907208E0
8,818396239E1;3,723223805E-1;-2,750420868E-1;2,558609009E0
8,828396239E1;1,579086632E-1;-5,650503635E-1;1,730581284E0
8,838396239E1;2,092213556E-2;1,797471046E-1;-6,064364910E-1
8,848396239E1;-4,474587739E-2;3,750712574E-1;-1,529759288E0
8,858396239E1;-5,801692605E-1;-1,812742651E-1;-1,975385427E0
8,868396239E1;-9,269880056E-1;-5,806274414E-1;-1,510669708E0
8,878396239E1;-7,615962625E-1;-9,805914164E-1;-1,250288486E0
8,888396239E1;-7,345654815E-2;2,315179259E-1;-6,856962442E-1
8,898396239E1;6,524040699E-1;1,376279354E0;1,265254617E0
8,908396239E1;6,954700947E-1;6,766859889E-1;2,182163477E0
8,918396239E1;6,337726712E-1;-1,374446750E-1;1,268461704E0
8,928396239E1;-7,116580009E-2;-4,825835526E-1;8,255843520E-1
8,938396239E1;3,207042441E-2;-8,119926453E-1;-8,704829961E-3
8,948396239E1;-1,024726480E-1;-6,021603942E-1;-7,418958545E-1
8,958396239E1;-8,200865984E-2;7,406741381E-1;-2,491872072E0
8,968396239E1;-7,425066829E-1;-5,566509366E-1;-1,621847272E0
8,978396239E1;-4,624249935E-1;-8,888089061E-1;-1,032056808E0
8,988396239E1;2,458732575E-2;-3,924809098E-1;-4,436408877E-1
8,998396239E1;3,077233732E-1;8,353582025E-2;-5,479460955E-1
9,008396239E1;3,174972236E-1;3,692680299E-1;9,010262042E-2
9,018396239E1;5,910121277E-2;-9,560041130E-2;1,152244568E0
9,028396239E1;2,011273801E-1;2,122756690E-1;1,325730324E0
9,038396239E1;-1,505782902E-1;-5,803219974E-3;6,430884004E-1
9,048396239E1;-4,544837475E-1;-1,078177169E-1;-7,640396953E-1
9,058396239E1;4,260785133E-2;-1,143845171E-1;-6,931793094E-1
9,068396239E1;-5,757404864E-2;4,135557711E-1;-1,947132945E-1
9,078396239E1;-2,107485011E-2;2,269364446E-1;3,381139040E-1
9,088396239E1;-3,205515444E-1;-1,131627858E-1;5,057964325E-1
9,098396239E1;-2,759583890E-1;1,178969890E-1;2,217440903E-1
9,108396239E1;-3,660610020E-1;-9,804387391E-2;-2,457205504E-1
9,118396239E1;-3,596469164E-1;-1,320996135E-1;-3,098613918E-1
9,128396239E1;-2,031126916E-1;2,744311988E-1;-4,031710699E-2
9,138396239E1;5,345070735E-2;5,342016816E-1;2,596177394E-3
9,148396239E1;-3,181080818E-1;-3,202461004E-1;-3,543018401E-1
9,158396239E1;-5,203045011E-1;-2,179261744E-1;-4,083634019E-1
9,168396239E1;-9,056077152E-2;-5,453499556E-1;1,123992056E-1
9,178396239E1;4,550946131E-2;1,258382350E-1;5,907067060E-1
9,188396239E1;6,191119552E-1;7,849618047E-2;9,714284539E-1
9,198396239E1;1,079398870E0;6,155994534E-1;1,677283287E0
9,208396239E1;1,013425469E0;-4,946481287E-1;2,039373636E0
9,218396239E1;7,422012687E-1;-3,967569768E-1;1,241125464E0
9,228396239E1;-2,186897546E-1;1,237002090E-1;-1,576032341E-1
9,238396239E1;-2,953533530E-1;1,931861341E-1;-4,870123267E-1
9,248396239E1;-3,188716471E-1;3,147483170E-1;-9,460775256E-1
9,258396239E1;-3,553708494E-1;2,160935849E-1;-1,331991673E0
9,268396239E1;-2,617557645E-1;1,209513173E-1;-8,419250250E-1
9,278396239E1;-2,599231601E-1;-4,886921961E-3;-5,717698932E-1
9,288396239E1;-4,505131021E-2;-7,044803500E-1;8,704829961E-2
9,298396239E1;-1,356120855E-1;-2,718350291E-2;-2,159408629E-1
9,308396239E1;-3,680463135E-2;1,910481006E-1;-4,642575979E-2
9,318396239E1;5,619960278E-2;2,243402600E-1;4,169155285E-2
9,328396239E1;-8,506298810E-2;-1,250746548E-1;8,475755155E-2
9,338396239E1;-1,401935667E-1;4,016438872E-2;5,222897977E-2
9,348396239E1;-3,802636266E-2;2,241875380E-1;7,299839705E-2
9,358396239E1;1,241583601E-1;-7,559457421E-2;6,307183951E-2
9,368396239E1;5,406157300E-2;1,195768714E-1;-7,483099122E-3
9,378396239E1;5,650503561E-3;-8,567385375E-2;-1,313360333E-1
9,388396239E1;-1,409571618E-1;-3,787364438E-2;6,215553731E-2
9,398396239E1;-2,458732575E-1;-1,635591686E-1;6,765332818E-2
9,408396239E1;-2,979495227E-1;-2,420553565E-1;1,125519201E-1
9,418396239E1;-2,409863323E-1;-8,888089657E-2;-4,276056588E-2
9,428396239E1;-9,789115191E-2;1,151480973E-1;-1,893682219E-2
9,438396239E1;1,412625909E-1;-6,811147183E-2;8,261952549E-2
9,448396239E1;1,979203373E-1;-1,971567571E-1;-9,285151958E-2
9,458396239E1;8,918632567E-2;-3,814853430E-1;-1,427897513E-1
9,468396239E1;-1,430951804E-1;-3,000875413E-1;-6,354525685E-1
9,478396239E1;-3,387247920E-1;-3,407101035E-1;-1,054658890E0
9,488396239E1;-6,017022580E-2;4,993823543E-2;-4,738787115E-1
9,498396239E1;8,596401215E-1;9,237809777E-1;1,391398311E0
9,508396239E1;7,226535678E-1;1,142470717E0;2,056630611E0
9,518396239E1;3,109304011E-1;-6,261368748E-3;2,020895004E0
9,528396239E1;5,818491429E-2;-4,689917862E-1;1,060767531E0
9,538396239E1;3,275764883E-1;1,527163088E-1;-9,447031021E-1
9,548396239E1;-9,789115191E-2;-4,311181605E-1;-1,402088404E0
9,558396239E1;-6,172793508E-1;-3,697261810E-1;-1,096350431E0
9,568396239E1;-1,413236737E0;-8,865181804E-1;-1,686751604E0
9,578396239E1;-6,317873597E-1;-3,283400834E-1;-1,313207507E0
9,588396239E1;7,765624523E-1;1,053589821E0;5,587889552E-1
9,598396239E1;1,191492677E0;1,184620380E0;1,665982246E0
9,608396239E1;7,208209634E-1;2,189951837E-1;2,499355078E0
9,618396239E1;3,770565689E-1;-1,455386430E-1;2,365270138E0
9,628396239E1;-6,498079300E-1;-1,374446750E0;-5,745187402E-1
9,638396239E1;1,133155003E-1;2,107485086E-1;-1,530828357E0
9,648396239E1;-2,260201424E-2;-6,994407177E-1;-1,769982100E0
9,658396239E1;-8,058840036E-1;-9,682214260E-1;-2,000583649E0
9,668396239E1;-7,690793276E-1;-1,046870351E0;-1,261283994E0
9,678396239E1;3,214678466E-1;1,069014147E-2;-7,916813493E-1
9,688396239E1;1,246623278E0;1,662164330E0;1,693929315E0
9,698396239E1;8,920159936E-1;1,100626469E0;2,273182392E0
9,708396239E1;4,596760869E-2;-2,718350291E-1;2,088395596E0
9,718396239E1;-1,620320082E-1;-5,659666657E-1;6,272059083E-1
9,728396239E1;1,096503139E-1;9,040805697E-2;-1,006553173E0
9,738396239E1;-1,214094684E-1;-6,255260110E-1;-1,533424497E0
9,748396239E1;-1,130558848E0;-4,534147382E-1;-1,718516707E0
9,758396239E1;-1,170570493E0;-9,428704977E-1;-1,954005241E0
9,768396239E1;5,497786999E-1;1,002735257E0;1,598939747E-1
9,778396239E1;7,113525867E-1;1,387580395E0;1,663844228E0
9,788396239E1;2,846632004E-1;5,444336534E-1;2,878702402E0
9,798396239E1;-2,092213482E-1;-7,237225771E-1;9,297369123E-1
9,808396239E1;-9,346238524E-2;-5,146539584E-2;-7,119634151E-1
9,818396239E1;-4,581489265E-1;-3,900374472E-1;-1,757611990E0
9,828396239E1;-1,100779176E0;-7,849618196E-1;-2,203085423E0
9,838396239E1;-1,105513334E0;-1,387733102E0;-1,430646420E0
9,848396239E1;2,021963894E-1;1,956295967E-1;-4,683809280E-1
9,858396239E1;1,156215191E0;1,325883031E0;2,027461767E0
9,868396239E1;8,559749126E-1;4,415028691E-1;2,732400179E0
9,878396239E1;4,799873531E-1;2,490803003E-1;1,145830512E0
9,888396239E1;-2,840523422E-1;-9,436340928E-1;-1,018617824E-1
9,898396239E1;4,442517459E-1;4,033237696E-1;-1,720349193E0
9,908396239E1;-7,987063378E-2;8,127561808E-1;-2,279749155E0
9,918396239E1;-1,214247346E0;-6,491970420E-1;-1,757611990E0
9,928396239E1;-1,280526280E0;-4,983133376E-1;-1,389107585E0
9,938396239E1;5,855143666E-1;1,180191636E0;5,584835410E-1
9,948396239E1;4,085161388E-1;1,497230768E0;1,924072862E0
9,958396239E1;-2,034181207E-1;-4,276056774E-3;2,827695131E0
9,968396239E1;-2,110539377E-1;-3,098613918E-1;2,242639065E0
9,978396239E1;1,175915599E-1;-5,067127347E-1;-7,637342811E-1
9,988396239E1;2,035708427E-1;-1,915062517E-1;-1,276708364E0
9,998396239E1;-5,998696685E-1;-6,165157557E-1;-2,207667112E0
1,000839624E2;-9,854783416E-1;-9,298896194E-1;-1,787697196E0
1,001839624E2;-5,604688451E-2;3,802636266E-2;-7,829765081E-1
1,002839624E2;5,357288122E-1;9,720393419E-1;6,609562039E-1
1,003839624E2;6,695083380E-1;8,655960560E-1;2,600605965E0
1,004839624E2;8,781187981E-2;-6,308710575E-1;1,717142224E0
1,005839624E2;1,044579595E-1;-4,253149331E-1;-3,462078869E-1
1,006839624E2;-2,327396572E-1;5,254968405E-1;-1,608102798E0
1,007839624E2;-9,101892114E-1;-2,750420868E-1;-1,731802940E0
1,008839624E2;-7,883216143E-1;-4,567744732E-1;-7,996225953E-1
1,009839624E2;-1,296561509E-1;-2,732094824E-1;-9,482156038E-1
1,010839624E2;9,037751555E-1;1,309695125E0;6,885978580E-1
1,011839624E2;7,258606553E-1;8,843801618E-1;1,605353832E0
1,012839624E2;7,987063378E-2;5,742133409E-2;2,786461830E0
1,013839624E2;-6,383541971E-2;-1,588249654E-1;1,483791709E0
1,014839624E2;1,537853181E-1;-1,924225502E-2;-9,109528065E-1
1,015839624E2;-5,329799280E-2;1,163698286E-1;-1,173014045E0
1,016839624E2;-9,413433671E-1;-5,893322229E-1;-2,211026669E0
1,017839624E2;-1,314581990E0;-5,195409060E-1;-1,950187325E0
1,018839624E2;5,177082866E-2;2,141082734E-1;-4,444044530E-1
1,019839624E2;7,021896243E-1;1,127962708E0;1,112996459E0
1,020839624E2;3,724750876E-1;5,661193728E-1;2,746755600E0
1,021839624E2;2,503020465E-1;-1,075122803E-1;2,669175625E0
1,022839624E2;-1,679879380E-3;-9,228646755E-1;1,948660165E-1
1,023839624E2;1,380555481E-1;2,596177394E-3;-1,238071084E0
1,024839624E2;-4,776966274E-1;-3,536909819E-1;-1,957670450E0
1,025839624E2;-9,734137654E-1;-4,805982411E-1;-2,391079187E0
1,026839624E2;-6,288857460E-1;-5,297728777E-1;-1,098488450E0
1,027839624E2;1,388191283E-1;7,987062931E-1;-1,557706445E-1
1,028839624E2;5,710062981E-1;8,069530129E-1;2,253481865E0
1,029839624E2;1,956295967E-1;-3,492622077E-1;2,544253826E0
1,030839624E2;5,894849449E-2;-6,823364496E-1;1,295339704E0
1,031839624E2;-9,529497474E-2;1,889100820E-1;-8,985827565E-1
1,032839624E2;-6,826419383E-2;1,221730490E-3;-1,201724648E0
1,033839624E2;-6,910412908E-1;-2,258674204E-1;-1,837482691E0
1,034839624E2;-1,023352027E0;-6,670648456E-1;-1,629635811E0
1,035839624E2;-1,237002090E-1;1,404990070E-2;-8,552113175E-1
1,036839624E2;4,619668424E-1;6,611089110E-1;6,322455406E-2
1,037839624E2;4,456261992E-1;6,751587987E-1;1,947132945E0
1,038839624E2;3,874412775E-1;8,161159754E-1;2,536617994E0
1,039839624E2;1,663080603E-1;-2,028072625E-1;1,355968118E0
1,040839624E2;-4,046982154E-2;-1,152549982E0;1,136209369E-1
1,041839624E2;-1,542434748E-2;-5,971207842E-2;-6,218608022E-1
1,042839624E2;3,955352306E-2;2,110539377E-1;-1,761735320E0
1,043839624E2;-9,810495973E-1;-8,188648820E-1;-1,795638442E0
1,044839624E2;-1,136972904E0;-6,320928335E-1;-1,695303798E0
1,045839624E2;1,055269688E-1;2,336559631E-2;-4,761694670E-1
1,046839624E2;6,406449080E-1;8,397870064E-1;6,707300544E-1
1,047839624E2;6,933320761E-1;8,045095205E-1;2,362368584E0
1,048839624E2;5,199990273E-1;5,526803136E-1;2,498591661E0
1,049839624E2;-1,084285788E-2;-4,004221559E-1;9,778425694E-1
1,050839624E2;-1,408044398E-1;-3,987422884E-1;-2,302961946E-1
1,051839624E2;-1,143845171E-1;3,042109013E-1;-9,344711304E-1
1,052839624E2;-3,657555580E-1;-1,756237596E-1;-1,531133771E0
1,053839624E2;-1,171944976E0;-2,669481039E-1;-1,074664712E0
1,054839624E2;1,264491081E-1;-2,785545588E-1;-1,487151384E0
1,055839624E2;7,177666426E-1;2,260201424E-1;-9,115636349E-1
1,056839624E2;7,154759169E-1;1,213941932E0;1,955685139E0
1,057839624E2;1,105666086E-1;1,299615800E-1;2,459954262E0
1,058839624E2;4,494441152E-1;-2,703078687E-1;1,310764074E0
1,059839624E2;1,771509200E-1;-5,346598029E-1;-2,762638032E-1
1,060839624E2;-1,818851233E-1;4,459316432E-1;-1,415222049E0
1,061839624E2;-3,854559660E-1;2,952006161E-1;-1,846951127E0
1,062839624E2;-1,211345792E0;-3,514002264E-1;-1,746921897E0
1,063839624E2;-8,371908069E-1;-7,067710757E-1;-1,417512774E0
1,064839624E2;4,906775057E-1;1,364978433E0;8,617781401E-1
1,065839624E2;5,398521423E-1;9,294314981E-1;1,943162322E0
1,066839624E2;3,014619946E-1;1,450804919E-1;2,713310719E0
1,067839624E2;1,466076635E-2;-5,494732857E-1;1,771967411E0
1,068839624E2;3,924809024E-2;-4,996877611E-1;-5,111414790E-1
1,069839624E2;1,062905490E-1;1,275181174E-1;-9,161451459E-1
1,070839624E2;-5,129740834E-1;-5,071708560E-1;-1,998751044E0
1,071839624E2;-1,226159215E0;-7,047857642E-1;-1,914146304E0
1,072839624E2;-2,504547536E-1;-3,947716653E-1;-9,679159522E-1
1,073839624E2;5,616905689E-1;6,188064814E-1;-1,490511149E-1
1,074839624E2;6,641632318E-1;1,079398870E0;1,942398787E0
1,075839624E2;4,300491214E-1;7,186829448E-1;2,702925920E0
1,076839624E2;-5,803219974E-3;-3,704897761E-1;1,524719596E0
1,077839624E2;-1,392772794E-1;-8,929322958E-1;-1,557706390E-2
1,078839624E2;5,222897977E-2;-1,492038369E-1;-9,586002827E-1
1,079839624E2;-1,055880547E0;-3,956879675E-1;-1,977828979E0
1,080839624E2;-1,580308437E0;-8,458956480E-1;-1,630552053E0
1,081839624E2;9,254608303E-2;5,969680548E-1;-7,614435554E-1
1,082839624E2;7,489207983E-1;9,167560339E-1;3,663664162E-1
1,083839624E2;6,621779203E-1;1,016327024E0;2,343279123E0
1,084839624E2;4,534147382E-1;2,878702581E-1;2,592359304E0
1,085839624E2;-1,594358236E-1;-5,737552047E-1;8,384125233E-1
1,086839624E2;-6,261368841E-2;-2,658790946E-1;-7,283040881E-1
1,087839624E2;-1,120937690E-1;-1,950187236E-1;-1,239140153E0
1,088839624E2;-5,209153295E-1;-7,079927921E-1;-2,456289053E0
1,089839624E2;-1,338863850E0;-1,120632291E0;-1,625665188E0
1,090839624E2;-7,396050692E-1;-8,892670870E-1;-1,042136073E0
1,091839624E2;9,445503950E-1;1,405906320E0;1,193936110E0
1,092839624E2;8,797986507E-1;1,084743977E0;2,131767035E0
1,093839624E2;2,727513313E-1;-4,428773187E-3;2,567466736E0
1,094839624E2;9,636399150E-2;-5,499314666E-1;1,598634362E0
1,095839624E2;1,847867370E-1;-1,734857261E-1;-1,209513187E0
1,096839624E2;-8,918632567E-2;2,260201424E-1;-1,428050280E0
1,097839624E2;-9,608910084E-1;-2,574796975E-1;-1,930486917E0
1,098839624E2;-1,293812633E0;-8,419250250E-1;-1,691180468E0
1,099839624E2;-7,651086897E-2;3,419318199E-1;-4,920519590E-1
1,100839624E2;6,553056836E-1;1,553735733E0;8,616254330E-1
1,101839624E2;3,979786932E-1;8,399397135E-1;2,486374378E0
1,102839624E2;9,086620808E-2;-2,709187269E-1;2,709340096E0
1,103839624E2;-9,590584040E-2;-2,703078687E-1;-3,329215571E-2
1,104839624E2;-4,024074674E-1;-2,820670307E-1;-1,330769897E0
1,105839624E2;-4,531092942E-1;-2,431243658E-1;-2,112066507E0
1,106839624E2;-7,683157325E-1;-1,271057844E0;-8,100073338E-1
1,107839624E2;-5,778785348E-1;-1,073137522E0;-1,044426799E0
1,108839624E2;6,704245806E-1;5,635231733E-1;1,279762685E-1
1,109839624E2;7,260133624E-1;6,623306274E-1;1,439198494E0
1,110839624E2;3,217732608E-1;7,903069258E-1;2,942996025E0
1,111839624E2;2,730567753E-1;-4,870123267E-1;2,827695131E0
1,112839624E2;-1,084285788E-2;-2,944370508E-1;-5,268712714E-2
1,113839624E2;-3,010038435E-1;-2,661845386E-1;-8,805622458E-1
1,114839624E2;-3,052799106E-1;-1,974621862E-1;-1,900096297E0
1,115839624E2;-1,166447163E0;-1,220966935E0;-1,512502313E0
1,116839624E2;-7,884743214E-1;-2,997821271E-1;-9,906707406E-1
1,117839624E2;1,088867337E-1;5,558874011E-1;-5,731443167E-1
1,118839624E2;8,237518072E-1;1,062294602E0;1,789835215E0
1,119839624E2;7,258606553E-1;1,038470864E0;2,421011686E0
1,120839624E2;1,098030284E-1;-2,292271852E-1;1,866651416E0
1,121839624E2;1,087340117E-1;-9,862419367E-1;5,584835410E-1
1,122839624E2;4,378376603E-1;3,434589803E-1;-1,434922457E0
1,123839624E2;-2,457205504E-1;-3,362813294E-1;-1,567174792E0
1,124839624E2;-1,420567155E0;-6,533203721E-1;-1,933999419E0
1,125839624E2;-1,467756510E0;-3,089450896E-1;-1,561982393E0
1,126839624E2;2,154827118E-1;6,776022911E-1;1,863138974E-1
1,127839624E2;6,647741199E-1;1,691485882E0;1,448972344E0
1,128839624E2;6,108652353E-1;7,124215961E-1;2,917797804E0
1,129839624E2;-5,192354787E-3;-5,474879742E-1;1,314887404E0
1,130839624E2;3,298672289E-2;-4,190535545E-1;-3,709479272E-1
1,131839624E2;9,300423414E-2;-4,622722864E-1;-1,559844375E0
1,132839624E2;-2,116648108E-1;6,017022580E-2;-1,877799749E0
1,133839624E2;-1,398117781E0;-8,846855760E-1;-1,872760177E0
1,134839624E2;-1,162018418E0;-8,677340746E-1;-1,323897719E0
1,135839624E2;4,508185387E-1;1,178817153E0;9,879218340E-1
1,136839624E2;5,045747161E-1;1,428202987E0;2,017993450E0
1,137839624E2;1,682933718E-1;-7,376197726E-2;2,730567694E0
1,138839624E2;5,589416996E-2;-3,998112977E-1;1,957364917E0
1,139839624E2;7,971791178E-2;-4,767803252E-1;-8,828529716E-1
1,140839624E2;1,516472995E-1;-9,987647086E-2;-1,563814998E0
1,141839624E2;-3,579670191E-1;-6,334672570E-1;-2,286621332E0
1,142839624E2;-1,079551578E0;-5,297728777E-1;-1,762193561E0
1,143839624E2;-2,657263875E-1;3,791945875E-1;-5,668829679E-1
1,144839624E2;4,369213581E-1;1,255175352E0;3,404046595E-1
1,145839624E2;5,230533481E-1;1,206458807E0;2,324189425E0
1,146839624E2;2,122756690E-1;3,164281845E-1;2,793181419E0
1,147839624E2;-2,371684313E-1;-5,609270334E-1;1,124450207E0
1,148839624E2;1,328631863E-2;-2,611449063E-1;-4,725042582E-1
1,149839624E2;-1,345430762E-1;-1,769981980E-1;-1,552361250E0
1,150839624E2;-4,198171496E-1;-8,819366693E-1;-1,912313700E0
1,151839624E2;-1,171486855E0;-7,812966704E-1;-1,831832170E0
1,152839624E2;3,184134960E-1;3,430008292E-1;-1,623374373E-1
1,153839624E2;7,070765495E-1;9,686795473E-1;1,412778616E0
1,154839624E2;4,358523488E-1;4,149302244E-1;2,705827713E0
1,155839624E2;1,864666194E-1;-1,437060535E-1;2,688876152E0
1,156839624E2;-5,864306539E-2;-3,845396638E-1;-4,673119187E-1
1,157839624E2;6,750060618E-2;2,764165215E-2;-1,335504174E0
1,158839624E2;-1,082758680E-1;-3,205515444E-1;-2,329534531E0
1,159839624E2;-7,678576112E-1;-5,160284042E-1;-1,738369823E0
1,160839624E2;-9,967793822E-1;-8,669704795E-1;-1,339322090E0
1,161839624E2;2,202169150E-1;5,847507715E-1;-3,236058652E-1
1,162839624E2;8,103127480E-1;1,357800722E0;2,007914066E0
1,163839624E2;6,247624159E-1;6,417139173E-1;2,913674593E0
1,164839624E2;8,002334833E-2;-3,736968040E-1;1,008691192E0
1,165839624E2;-2,492330223E-1;-7,927503586E-1;-3,937026560E-1
1,166839624E2;-2,748893574E-3;4,743368626E-1;-1,588860512E0
1,167839624E2;-3,833179474E-1;-2,376265824E-1;-1,133918643E0
1,168839624E2;-8,106181622E-1;-4,329507351E-1;-1,460426092E0
1,169839624E2;-7,166976333E-1;-5,207626149E-2;-1,653764963E0
1,170839624E2;3,155119121E-1;2,669481039E-1;6,898195744E-1
1,171839624E2;7,273877859E-1;1,455539107E0;1,866651416E0
1,172839624E2;2,131919712E-1;2,755002379E-1;2,657416582E0
1,173839624E2;6,719517522E-3;-6,246097013E-2;2,071444035E0
1,174839624E2;1,237002108E-2;-7,134906054E-1;-5,316054821E-1
1,175839624E2;1,178969890E-1;7,147123665E-2;-1,293812633E0
1,176839624E2;-4,926628172E-1;-5,885686874E-1;-1,793805838E0
1,177839624E2;-8,255843520E-1;-5,102251768E-1;-1,477835774E0
1,178839624E2;-5,626068711E-1;-5,888741016E-1;-1,077871680E0
1,179839624E2;5,946773291E-1;1,091616154E0;1,102459073E0
1,180839624E2;6,736316681E-1;1,014036298E0;2,114051819E0
1,181839624E2;3,816380501E-1;-1,615738571E-1;2,902678967E0
1,182839624E2;3,541491330E-1;-5,145012736E-1;1,939955354E0
1,183839624E2;-1,203404516E-1;-1,927279830E-1;-1,174082994E0
1,184839624E2;-2,070833147E-1;7,238753140E-2;-1,928959727E0
1,185839624E2;-5,248859525E-1;-3,894265890E-1;-2,624277115E0
1,186839624E2;-8,579602242E-1;-4,880813360E-1;-1,315345645E0
1,187839624E2;-1,841758788E-1;5,080871582E-1;-4,187481403E-1
1,188839624E2;3,434589803E-1;1,043968678E0;5,861251950E-1
1,189839624E2;4,060726762E-1;6,577491760E-1;2,648711681E0
1,190839624E2;3,168863356E-1;7,635815535E-3;2,927724361E0
1,191839624E2;1,375973970E-1;-7,689266205E-1;2,568688393E-1
1,192839624E2;3,074179292E-1;-1,250746548E-1;-7,113525867E-1
1,193839624E2;-4,233296216E-1;1,588249579E-2;-2,145664215E0
1,194839624E2;-6,750060916E-1;-1,301143020E-1;-2,560288906E0
1,195839624E2;-6,479753256E-1;-6,834055185E-1;-1,259298682E0
1,196839624E2;4,627304152E-2;1,250746548E-1;-3,338378668E-1
1,197839624E2;5,607742667E-1;1,571908951E0;1,794263959E0
1,198839624E2;2,393064648E-1;5,781839490E-1;2,663525105E0
1,199839624E2;2,388483137E-1;-5,904012322E-1;2,009746552E0
1,200839624E2;2,122756690E-1;-7,153232098E-1;7,260133624E-1
1,201839624E2;-8,659014851E-2;5,390885845E-2;-1,762193561E0
1,202839624E2;-7,180721164E-1;-3,234531581E-1;-2,146275043E0
1,203839624E2;-1,149343014E0;-8,365799785E-1;-1,884213805E0
1,204839624E2;4,932736978E-2;4,499022663E-1;-4,019493461E-1
1,205839624E2;4,589125216E-1;1,148273945E0;8,559749126E-1
1,206839624E2;3,740022480E-1;7,736608386E-1;2,867248774E0
1,207839624E2;1,038470939E-1;-1,747074574E-1;2,705827713E0
1,208839624E2;2,779436857E-2;-6,378960609E-1;3,060434759E-1
1,209839624E2;7,223481685E-2;-1,557706390E-2;-8,333728909E-1
1,210839624E2;-4,280638099E-1;-9,804387391E-2;-1,847867370E0
1,211839624E2;-9,329439402E-1;-8,956811428E-1;-2,268295288E0
1,212839624E2;-6,876815557E-1;-8,990409374E-1;-1,413694859E0
1,213839624E2;1,728748679E-1;3,356704414E-1;-5,626068711E-1
1,214839624E2;7,038694620E-1;1,301142931E0;1,902234316E0
1,215839624E2;4,172209501E-1;8,472700715E-1;2,847701073E0
1,216839624E2;2,255619913E-1;-4,729624093E-1;1,748601794E0
1,217839624E2;-6,322455406E-2;-1,187827468E0;4,326453209E-1
1,218839624E2;-3,283400834E-2;1,844813079E-1;-1,713782430E0
1,219839624E2;-9,819658846E-2;1,334740520E-1;-2,005317926E0
1,220839624E2;-1,074817419E0;-1,033278584E0;-1,760360956E0
1,221839624E2;-6,921103001E-1;-7,211264372E-1;-1,453095675E0
1,222839624E2;4,198171496E-1;1,138958216E0;7,449501753E-1
1,223839624E2;5,925393105E-1;1,564731359E0;1,849394560E0
1,224839624E2;1,375973970E-1;2,025018334E-1;2,918256044E0
1,225839624E2;5,161811411E-2;-5,229006410E-1;2,064266443E0
1,226839624E2;-1,346957833E-1;-3,683517575E-1;-8,865181804E-1
1,227839624E2;-1,093448773E-1;9,728029370E-2;-2,007303238E0
1,228839624E2;-5,325217843E-1;-7,942775488E-1;-2,121535063E0
1,229839624E2;-8,883507848E-1;-1,001971722E0;-1,765705943E0
1,230839624E2;5,024366826E-2;2,244929783E-2;-7,119634151E-1
1,231839624E2;6,018549800E-1;1,174846530E0;1,881159544E0
1,232839624E2;5,641340613E-1;1,168279767E0;2,468200922E0
1,233839624E2;1,565342247E-1;-4,396702647E-1;2,136959314E0
1,234839624E2;3,848451003E-2;-8,263479471E-1;7,638869882E-1
1,235839624E2;1,285871267E-1;2,729040384E-1;-1,537089705E0
1,236839624E2;2,855795063E-2;2,243402600E-1;-1,891849637E0
1,237839624E2;-1,072984815E0;-8,568912148E-1;-1,788918853E0
1,238839624E2;-1,113760114E0;-9,717338681E-1;-1,439962149E0
1,239839624E2;3,796527386E-1;8,072584271E-1;3,188716471E-1
1,240839624E2;6,406449080E-1;1,307251573E0;1,698510766E0
1,241839624E2;2,212859392E-1;2,438879460E-1;2,853504181E0
1,242839624E2;2,101376504E-1;-3,691153228E-1;2,298838615E0
1,243839624E2;8,582656831E-2;-5,285511613E-1;-5,661193728E-1
1,244839624E2;4,550946131E-2;-2,565634064E-2;-1,345888853E0
1,245839624E2;-4,405865669E-1;-5,196936131E-1;-2,321746111E0
1,246839624E2;-1,059393048E0;-7,238753438E-1;-1,812589884E0
1,247839624E2;-2,548835278E-1;-7,116580009E-2;-1,005331516E0
1,248839624E2;3,336851299E-1;6,285803318E-1;-4,276056588E-2
1,249839624E2;4,711298347E-1;1,026864529E0;2,223396778E0
1,250839624E2;3,037527502E-1;6,337726712E-1;3,055853367E0
1,251839624E2;2,336559631E-2;-5,230533481E-1;1,340696454E0
1,252839624E2;1,007927656E-1;8,323039114E-2;-1,016785145E0
1,253839624E2;4,108068720E-2;3,604105115E-2;-1,572519898E0
1,254839624E2;-6,467535496E-1;-6,930266023E-1;-2,085646629E0
1,255839624E2;-1,078177214E0;-7,693848014E-1;-1,690569520E0
1,256839624E2;6,154467165E-2;2,371684313E-1;-4,039346576E-1
1,257839624E2;3,888157308E-1;1,044121385E0;7,718282342E-1
1,258839624E2;2,628247738E-1;8,915578127E-1;2,618168354E0
1,259839624E2;4,520402849E-2;2,999348342E-1;2,784629107E0
1,260839624E2;9,392052889E-2;-8,200865984E-1;7,965682745E-1
1,261839624E2;1,861611903E-1;8,048149943E-2;-9,031642675E-1
1,262839624E2;-1,783726513E-1;-5,299255848E-1;-1,714546084E0
1,263839624E2;-5,409211516E-1;-1,267545372E-1;-2,243402719E0
1,264839624E2;-9,579893947E-1;-1,008233070E0;-1,403310180E0
1,265839624E2;-2,561052442E-1;1,452332139E-1;-7,082982659E-1
1,266839624E2;3,126102984E-1;1,592678428E0;1,576643229E0
1,267839624E2;1,802052557E-2;1,011287451E0;2,421775341E0
1,268839624E2;-6,979135424E-2;-4,247040749E-1;2,149482012E0
1,269839624E2;-2,035708427E-1;-9,598219991E-1;7,932085395E-1
1,270839624E2;1,847867295E-2;2,808452845E-1;-1,237002134E0
1,271839624E2;-2,933680415E-1;-2,182316035E-1;-1,324661255E0
1,272839624E2;-1,029918790E0;-2,973386645E-1;-1,859168410E0
1,273839624E2;-1,239598274E0;-7,192938328E-1;-1,600161552E0
1,274839624E2;9,560041130E-2;5,393940210E-1;1,710422710E-2
1,275839624E2;4,135557711E-1;1,153313637E0;1,293507099E0
1,276839624E2;3,262020350E-1;6,126978397E-1;2,841439724E0
1,277839624E2;-1,350012124E-1;-4,222606122E-1;1,586111665E0
1,278839624E2;-2,365575731E-1;-6,824892163E-1;9,972374886E-2
1,279839624E2;-7,177666575E-2;-4,428773001E-2;-1,743256688E0
1,280839624E2;-3,510948122E-1;-3,378084898E-1;-1,910175562E0
1,281839624E2;-1,280831695E0;-7,220427394E-1;-1,514793038E0
1,282839624E2;-3,851505518E-1;-2,868012190E-1;-1,172708511E0
1,283839624E2;9,359982610E-1;1,289689302E0;5,832235813E-1
1,284839624E2;9,062185884E-1;9,918924570E-1;1,846645594E0
1,285839624E2;4,752531648E-1;-3,460551500E-1;2,827084303E0
1,286839624E2;2,987131178E-1;-5,496259928E-1;1,625359654E0
1,287839624E2;2,672535479E-1;1,207986027E-1;-1,012356400E0
1,288839624E2;7,681630552E-2;1,278235465E-1;-1,008691192E0
1,289839624E2;-6,693555713E-1;-2,518292069E-1;-1,997682095E0
1,290839624E2;-1,091921568E0;-8,190175891E-1;-1,744325757E0
1,291839624E2;-8,414668590E-2;3,454442918E-1;-5,972734690E-1
1,292839624E2;3,196352422E-1;8,290968537E-1;5,937610269E-1
1,293839624E2;3,243694305E-1;7,452555895E-1;2,635425329E0
1,294839624E2;1,762346178E-1;2,156354338E-1;2,749657154E0
1,295839624E2;-3,233004212E-1;-8,940013051E-1;5,045747161E-1
1,296839624E2;-3,167336285E-1;-5,303837657E-1;-5,949827433E-1
1,297839624E2;-1,786780804E-1;-1,461495161E-1;-2,005775928E0
1,298839624E2;-6,226243973E-1;-6,583600044E-1;-2,070527792E0
1,299839624E2;-3,778201640E-1;-8,510879874E-1;-1,813658953E0
1,300839624E2;2,090686262E-1;-4,216497242E-1;-1,029766083E0
1,301839624E2;7,157813311E-1;1,457677245E0;1,712102532E0
1,302839624E2;1,069014193E-3;-4,043927789E-1;3,084563971E0
1,303839624E2;-1,939497143E-2;-8,266534209E-1;2,006234169E0
1,304839624E2;2,489275858E-2;-3,860668242E-1;-8,561276197E-1
1,305839624E2;3,405573592E-2;-5,563455224E-1;-1,453248382E0
1,306839624E2;-6,027712822E-1;-7,988590002E-1;-2,865721464E0
1,307839624E2;-8,159632683E-1;-7,579310536E-1;-2,274862289E0
1,308839624E2;3,219259977E-1;-5,568036437E-1;-1,098030329E0
1,309839624E2;9,573785663E-1;4,062253833E-1;2,605340183E-1
1,310839624E2;8,040513992E-1;1,886046380E-1;2,387413979E0
1,311839624E2;5,677992702E-1;-1,383609772E-1;2,578767538E0
1,312839624E2;1,423316002E-1;-1,245096087E0;4,975497425E-1
1,313839624E2;2,910772860E-1;-1,039998055E0;-9,491318464E-1
1,314839624E2;-3,970623948E-3;-6,572909951E-1;-1,838704348E0
1,315839624E2;-2,159408629E-1;-1,174693823E0;-2,559525490E0
1,316839624E2;-7,319692969E-1;-9,857838154E-1;-1,960572004E0
1,317839624E2;5,224425197E-1;8,399397135E-2;-1,242194533E0
1,318839624E2;1,073595643E0;1,232878804E0;1,167516232E0
1,319839624E2;8,116871715E-1;5,001459122E-1;1,979661584E0
1,320839624E2;3,307835162E-1;-6,933320761E-1;2,219426155E0
1,321839624E2;1,702786833E-1;-8,646797538E-1;1,091310740E0
1,322839624E2;4,679227769E-1;-6,771441102E-1;-1,395674348E0
1,323839624E2;5,251913667E-1;-5,120577812E-1;-1,582599163E0
1,324839624E2;-4,222606122E-1;-8,179485798E-1;-2,218662500E0
1,325839624E2;-5,630650520E-1;-7,417431474E-1;-1,911397338E0
1,326839624E2;8,607091308E-1;5,140430927E-1;-8,982773423E-1
1,327839624E2;1,042747021E0;1,136514783E0;1,590998530E0
1,328839624E2;7,915286422E-1;8,521569967E-1;2,224923849E0
1,329839624E2;4,176791012E-1;-2,593123019E-1;2,035250187E0
1,330839624E2;2,579378486E-1;-6,979135275E-1;7,806857824E-1
1,331839624E2;5,195409060E-1;-1,481348276E-1;-1,216996312E0
1,332839624E2;6,383541971E-2;-1,889100820E-1;-1,453859329E0
1,333839624E2;-1,038165450E0;-3,251330256E-1;-1,843896747E0
1,334839624E2;-1,141096234E0;-3,744603992E-1;-1,538311362E0
1,335839624E2;3,729332387E-1;5,367978215E-1;-3,466660380E-1
1,336839624E2;7,791585922E-1;1,165530920E0;9,103419185E-1
1,337839624E2;3,721696436E-1;9,130908251E-1;2,491566658E0
1,338839624E2;6,887505949E-2;3,436116874E-2;2,729651451E0
1,339839624E2;-3,552181423E-1;-8,097018600E-1;4,277583957E-1
1,340839624E2;2,596177394E-3;-1,485929638E-1;-8,732318878E-1
1,341839624E2;-2,020436823E-1;-5,432119370E-1;-1,746311069E0
1,342839624E2;-8,179485798E-1;-5,593998432E-1;-1,969276786E0
1,343839624E2;-1,185536742E0;-6,356052756E-1;-1,590234995E0
1,344839624E2;4,474587739E-2;2,426662147E-1;-1,089020014E0
1,345839624E2;8,274169564E-1;1,047939301E0;1,325577617E0
1,346839624E2;5,691736937E-1;8,254316449E-1;2,239737511E0
1,347839624E2;2,150245607E-1;-2,199114859E-1;2,393217325E0
1,348839624E2;-5,864306539E-2;-6,846272349E-1;1,325883031E0
1,349839624E2;3,903428912E-1;-5,115996301E-2;-1,074512005E0
1,350839624E2;1,449277848E-1;1,088867337E-1;-1,388038516E0
1,351839624E2;-7,562511563E-1;-5,047274232E-1;-1,872454643E0
1,352839624E2;-6,772968173E-1;-5,607742667E-1;-1,287398458E0
1,353839624E2;2,388483137E-1;1,649336219E-1;-6,010913849E-1
1,354839624E2;6,087272167E-1;1,139569163E0;1,773647189E0
1,355839624E2;4,103487432E-1;9,106473923E-1;2,346791506E0
1,356839624E2;-5,390885845E-2;-1,438587606E-1;2,072513103E0
1,357839624E2;-1,887573600E-1;-6,502660513E-1;6,688974500E-1
1,358839624E2;3,043636084E-1;1,432479024E-1;-1,306640744E0
1,359839624E2;-1,424843222E-1;-3,524692357E-1;-1,801441550E0
1,360839624E2;-1,079398870E0;-7,176139355E-1;-1,909412026E0
1,361839624E2;-9,462302923E-1;-5,809328556E-1;-1,556026459E0
1,362839624E2;5,586362481E-1;8,355109096E-1;2,247984111E-1
1,363839624E2;6,948592067E-1;1,473407030E0;1,684002757E0
1,364839624E2;3,436116874E-1;4,627304375E-1;2,828611612E0
1,365839624E2;-1,893682219E-2;-2,360994220E-1;2,366186619E0
1,366839624E2;-5,787948146E-2;-6,774495840E-1;-6,354525685E-1
1,367839624E2;1,401935667E-1;-6,994406879E-2;-1,303739190E0
1,368839624E2;-3,278819323E-1;-5,445863605E-1;-2,106874228E0
1,369839624E2;-9,132435322E-1;-5,942191482E-1;-1,908037543E0
1,370839624E2;-6,252205968E-1;-6,528622508E-1;-1,118188858E0
1,371839624E2;2,973386645E-1;7,996225953E-1;5,940664560E-2
1,372839624E2;4,201225638E-1;1,050077319E0;2,354274750E0
1,373839624E2;3,379611969E-1;7,029531598E-1;2,820670366E0
1,374839624E2;1,035416573E-1;-3,623957932E-1;1,442252874E0
1,375839624E2;1,256855279E-1;-1,091921628E-1;-1,194088817E0
1,376839624E2;-6,108652451E-4;-7,269296050E-2;-1,675908804E0
1,377839624E2;-1,013425469E0;-8,455902338E-1;-2,524858713E0
1,378839624E2;-1,167363524E0;-8,063421249E-1;-2,085188627E0
1,379839624E2;3,588833287E-2;-4,489859566E-2;9,636399150E-2
1,380839624E2;2,750420868E-1;1,171944976E0;1,730275750E0
1,381839624E2;1,947132945E-1;3,430008292E-1;2,831665754E0
1,382839624E2;2,257147133E-1;1,313360315E-2;2,717128515E0
1,383839624E2;-6,215553731E-2;-6,423248053E-1;-3,756821156E-2
1,384839624E2;-1,104138941E-1;-7,971791178E-2;-9,298896194E-1
1,385839624E2;-1,736384481E-1;-9,170614481E-1;-1,778076053E0
1,386839624E2;-5,893322229E-1;-3,074179292E-1;-2,203085423E0
1,387839624E2;-9,792169929E-1;-1,161713004E0;-1,404073715E0
1,388839624E2;-1,908953935E-1;3,008511290E-2;-8,465065360E-1
1,389839624E2;4,659374654E-1;9,844093323E-1;1,641394973E0
1,390839624E2;3,845396638E-1;1,299463034E0;2,431243658E0
1,391839624E2;1,220203340E-1;-2,246456891E-1;2,379472733E0
1,392839624E2;-5,345070735E-3;-7,284567952E-1;1,444849014E0
1,393839624E2;6,719517708E-2;-2,188424766E-1;-1,325119376E0
1,394839624E2;-8,002334833E-2;-1,493565589E-1;-1,120937705E0
1,395839624E2;-8,182539940E-1;-3,935499489E-1;-1,816560507E0
1,396839624E2;-1,191645384E0;-5,093088746E-1;-1,589471340E0
1,397839624E2;2,480112910E-1;5,207626224E-1;-3,107776940E-1
1,398839624E2;6,846272349E-1;1,045037746E0;9,091202021E-1
1,399839624E2;5,748242140E-1;7,692320347E-1;2,766761303E0
1,400839624E2;1,889100820E-1;-4,596760869E-1;1,955532312E0
1,401839624E2;9,269879758E-2;-7,043276429E-1;3,738495409E-1
1,402839624E2;8,872817457E-2;-1,382082552E-1;-1,256091714E0
1,403839624E2;-2,701551616E-1;-3,228422701E-1;-1,273195863E0
1,404839624E2;-9,541715384E-1;-2,298380435E-1;-1,222341299E0
1,405839624E2;-9,062185884E-1;-7,279986739E-1;-1,371239781E0
1,406839624E2;1,814269722E-1;5,958990455E-1;-4,780020416E-1
1,407839624E2;7,913759351E-1;1,217149019E0;1,584431767E0
1,408839624E2;-1,802052557E-2;1,143845171E-1;3,015994549E0
1,409839624E2;-1,707368344E-1;-8,048149943E-2;2,284330606E0
1,410839624E2;1,682933718E-1;-2,002110779E-1;-8,147414923E-1
1,411839624E2;2,086104751E-1;2,365575731E-1;-1,556790113E0
1,412839624E2;-6,936374903E-1;-7,935139537E-1;-2,040748119E0
1,413839624E2;-1,139416456E0;-7,732026577E-1;-1,806023121E0
1,414839624E2;-5,314527452E-2;-4,321871698E-2;-6,870706677E-1
1,415839624E2;4,341724813E-1;8,849910498E-1;8,260425329E-1
1,416839624E2;3,822489381E-1;9,256135821E-1;2,635119915E0
1,417839624E2;1,957823038E-1;-2,993239649E-2;2,978273392E0
1,418839624E2;4,199698567E-2;-8,329147696E-1;4,578435123E-1
1,419839624E2;1,313360333E-1;-3,066543639E-1;-1,023504734E0
1,420839624E2;-7,727445662E-2;-2,154827118E-1;-2,065793514E0
1,421839624E2;-5,612324476E-1;-7,124215961E-1;-2,210721254E0
1,422839624E2;-7,545713186E-1;-6,647741199E-1;-1,311833143E0
1,423839624E2;-1,053742506E-2;3,599523604E-1;-4,853324294E-1
1,424839624E2;4,966334403E-1;1,387274981E0;2,142151594E0
1,425839624E2;1,689042449E-1;-1,111774743E-1;2,911994696E0
1,426839624E2;3,023782931E-2;-4,790710807E-1;1,766469598E0
1,427839624E2;9,010262787E-3;-2,000583708E-1;-1,270447016E0
1,428839624E2;6,856962293E-2;1,965458989E-1;-1,804495931E0
1,429839624E2;-7,229590416E-1;-6,407976151E-1;-2,081218004E0
1,430839624E2;-1,109178543E0;-7,090618610E-1;-1,802663326E0
1,431839624E2;5,925392732E-2;5,047274232E-1;-1,788308024E-1
1,432839624E2;5,335907936E-1;1,274417639E0;1,286634922E0
1,433839624E2;4,132503271E-1;6,907358766E-1;2,841439724E0
1,434839624E2;1,027780771E-1;-1,769981980E-1;2,736370802E0
1,435839624E2;-1,322523206E-1;-5,619960427E-1;-1,979203373E-1
1,436839624E2;-5,864306539E-2;1,481348276E-1;-1,374904990E0
1,437839624E2;-2,357939780E-1;-4,905247986E-1;-2,309376001E0
1,438839624E2;-8,110763431E-1;-6,444628239E-1;-1,982868552E0
1,439839624E2;-4,138612151E-1;-4,900666475E-1;-1,100015640E0
1,440839624E2;3,978259861E-1;8,975137472E-1;-2,260201424E-2
1,441839624E2;4,534147382E-1;1,133307695E0;2,462092400E0
1,442839624E2;3,185662329E-1;8,202393055E-1;2,992476225E0
1,443839624E2;-1,362229437E-1;-3,875939846E-1;1,133918643E0
1,444839624E2;-1,791362315E-1;-5,458080769E-1;-5,787948370E-1
1,445839624E2;-7,009678334E-2;-9,315694682E-3;-1,887268186E0
1,446839624E2;-4,001167417E-1;-2,733621895E-1;-2,269669771E0
1,447839624E2;-1,211193085E0;-1,135598540E0;-1,539838552E0
1,448839624E2;-3,333797157E-1;-2,330450863E-1;-8,303185701E-1
1,449839624E2;6,595817208E-1;1,346805096E0;1,970193148E0
1,450839624E2;2,912299931E-1;3,084869385E-1;3,066696167E0
1,451839624E2;5,100724846E-2;-3,871358633E-1;2,042733431E0
1,452839624E2;2,886338346E-2;-2,906191349E-1;-1,019839525E0
1,453839624E2;1,899790913E-1;9,529497474E-2;-1,569465518E0
1,454839624E2;-8,309294581E-1;-6,499606371E-1;-2,367713690E0
1,455839624E2;-1,292438149E0;-7,791585922E-1;-2,345111609E0
1,456839624E2;1,082758680E-1;4,642575979E-1;-5,878050923E-1
1,457839624E2;4,460843503E-1;1,434006214E0;1,231657028E0
1,458839624E2;1,913535446E-1;3,094032407E-1;3,207195282E0
1,459839624E2;3,776674271E-1;-2,211332172E-1;3,091894388E0
1,460839624E2;-4,092797041E-1;-1,182329655E0;6,614143252E-1
1,461839624E2;-3,940080851E-2;-1,215621829E-1;-6,421720982E-1
1,462839624E2;-7,360926270E-2;3,546072841E-1;-2,758667469E0
1,463839624E2;-5,554292202E-1;-7,331910133E-1;-2,721099138E0
1,464839624E2;-4,889976382E-1;-3,301726580E-1;-1,360091448E0
1,465839624E2;1,339322031E-1;1,056796908E-1;-1,166752651E-1
1,466839624E2;6,470590234E-1;1,223868489E0;2,248136759E0
1,467839624E2;6,382014751E-1;1,025031924E0;2,882215023E0
1,468839624E2;-6,597344577E-2;-3,646865487E-1;1,608255506E0
1,469839624E2;-1,305724531E-1;-9,155342579E-1;3,037527502E-1
1,470839624E2;2,828305960E-1;3,077233732E-1;-1,766927719E0
1,471839624E2;4,505131021E-2;3,405573592E-2;-2,213928461E0
1,472839624E2;-1,125824690E0;-9,483683109E-1;-1,718822122E0
1,473839624E2;-6,514877677E-1;-4,877758920E-1;-1,169348836E0
1,474839624E2;4,670064747E-1;1,151786447E0;1,210887671E0
1,475839624E2;2,477058619E-1;8,126034737E-1;2,671008348E0
1,476839624E2;5,528330430E-2;1,168279797E-1;2,553416729E0
1,477839624E2;-1,001819000E-1;-9,813550115E-1;1,522581577E-1
1,478839624E2;5,314527452E-2;-2,196060568E-1;-1,104597092E0
1,479839624E2;-2,324342281E-1;-5,607742667E-1;-2,073276758E0
1,480839624E2;-7,102835774E-1;-6,380487680E-1;-2,111303091E0
1,481839624E2;-6,626361012E-1;-6,406449080E-1;-1,179580808E0
1,482839624E2;2,489275932E-1;5,433646441E-1;-5,404630303E-1
1,483839624E2;4,923573732E-1;1,102611780E0;2,054187059E0
1,484839624E2;3,628539443E-1;6,252205968E-1;2,626873255E0
1,485839624E2;-8,093964309E-2;-4,360050559E-1;1,935831904E0
1,486839624E2;-1,110247597E-1;-8,672759533E-1;4,192062616E-1
1,487839624E2;3,181080818E-1;4,718934000E-2;-1,564425945E0
1,488839624E2;2,351831272E-2;-3,510948122E-1;-2,058921337E0
1,489839624E2;-1,035416603E0;-8,000807762E-1;-1,714546084E0
1,490839624E2;-7,649559975E-1;-9,086620808E-1;-1,464396715E0
1,491839624E2;5,484042764E-1;9,709703326E-1;5,441282392E-1
1,492839624E2;6,974554062E-1;1,295339704E0;1,688889742E0
1,493839624E2;8,643743396E-2;3,785837293E-1;2,958420277E0
1,494839624E2;-1,595885456E-1;-1,715004146E-1;2,203238249E0
1,495839624E2;-2,977968007E-2;-4,583016634E-1;-7,643451095E-1
1,496839624E2;6,322455406E-2;3,512475267E-2;-1,349859476E0
1,497839624E2;-5,873469114E-1;-5,328271985E-1;-2,167197227E0
1,498839624E2;-1,060767531E0;-7,869471312E-1;-1,906968594E0
1,499839624E2;-2,105957866E-1;-1,771509200E-1;-9,972375035E-1
1,500839624E2;6,800457239E-1;1,557095528E0;1,413389444E0
1,501839624E2;3,982841372E-1;9,320276380E-1;2,327702045E0
1,502839624E2;8,261952549E-2;-2,070833147E-1;2,370768070E0
1,503839624E2;-1,351539344E-1;-5,497786999E-1;1,076191902E0
1,504839624E2;1,902845204E-1;-4,673119262E-2;-1,216232657E0
1,505839624E2;9,407325089E-2;-7,987063378E-2;-1,539227724E0
1,506839624E2;-9,254608750E-1;-5,708535910E-1;-1,943773150E0
1,507839624E2;-1,126740932E0;-4,634940028E-1;-1,626581430E0
1,508839624E2;2,532036304E-1;4,860960245E-1;-3,718642294E-1
1,509839624E2;7,458664775E-1;1,348332286E0;9,080511928E-1
1,510839624E2;4,253149331E-1;8,564330935E-1;2,680018663E0
1,511839624E2;1,104138941E-1;1,832595654E-2;2,727666140E0
1,512839624E2;-1,986839175E-1;-7,278459668E-1;4,308127165E-1
1,513839624E2;1,078177169E-1;-1,276708394E-1;-8,625417352E-1
1,514839624E2;-8,399397135E-3;-2,000583708E-1;-1,923614621E0
1,515839624E2;-5,772676468E-1;-4,764748812E-1;-2,177581787E0
1,516839624E2;-1,083827615E0;-8,567385077E-1;-1,517389297E0
1,517839624E2;-2,762638032E-1;-1,673770845E-1;-8,211556077E-1
1,518839624E2;7,487680912E-1;1,347416043E0;1,395827055E0
1,519839624E2;6,285803318E-1;9,801332951E-1;2,177734613E0
1,520839624E2;1,304197311E-1;-1,285871267E-1;2,566550255E0
1,521839624E2;1,847867295E-2;-2,304489166E-1;1,361160517E0
1,522839624E2;1,899790913E-1;5,207626149E-2;-1,259298682E0
1,523839624E2;8,949175477E-2;2,536617815E-1;-1,393078208E0
1,524839624E2;-7,739662528E-1;-4,138612151E-1;-1,977676272E0
1,525839624E2;-7,531968355E-1;-6,299547553E-1;-1,265254617E0
1,526839624E2;-1,385136992E-1;2,593123019E-1;-5,086980462E-1
1,527839624E2;4,045455158E-1;1,230129838E0;1,871232986E0
1,528839624E2;2,105957866E-1;1,009912968E0;2,525011539E0
1,529839624E2;-2,121229619E-1;-1,078177169E-1;2,086715698E0
1,530839624E2;-3,446807265E-1;-6,327036619E-1;6,792821288E-1
1,531839624E2;1,470658034E-1;9,758572280E-2;-1,277471900E0
1,532839624E2;-6,765332818E-2;-2,550362423E-2;-1,726305127E0
1,533839624E2;-9,598219991E-1;-5,393940210E-1;-1,848783612E0
1,534839624E2;-1,086118460E0;-6,113234162E-1;-1,629941225E0
1,535839624E2;5,073235631E-1;9,621127844E-1;1,020144969E-1
1,536839624E2;6,965391040E-1;1,464091301E0;1,323134065E0
1,537839624E2;2,753475010E-1;6,165157557E-1;2,761416435E0
1,538839624E2;6,734789163E-2;-2,871066704E-2;2,577087641E0
1,539839624E2;2,632829249E-1;-5,038111210E-1;-3,196352422E-1
1,540839624E2;5,108360648E-1;1,951714456E-1;-1,295034289E0
1,541839624E2;-3,558290005E-1;2,113593817E-1;-2,491566658E0
1,542839624E2;-1,036791086E0;2,535090782E-2;-2,132530689E0
1,543839624E2;-9,786061049E-1;-3,017674387E-1;-1,143387079E0
1,544839624E2;-1,676825136E-1;9,161451459E-1;6,566801574E-3
1,545839624E2;-2,947424725E-2;1,296408772E0;2,394438982E0
1,546839624E2;-2,490803003E-1;9,222537875E-1;2,947882891E0
1,547839624E2;-4,282165468E-1;-1,101084575E-1;1,210276723E0
1,548839624E2;-4,433354437E-1;-2,031126991E-2;-3,637702465E-1
1,549839624E2;-4,503603876E-1;4,355469346E-1;-1,582446456E0
1,550839624E2;-1,306793451E0;-6,042984724E-1;-1,905899525E0
1,551839624E2;-1,390176535E0;-5,510004759E-1;-1,610851645E0
1,552839624E2;1,505782902E-1;6,452264190E-1;-2,660318017E-1
1,553839624E2;4,586070776E-1;1,301448345E0;1,202030063E0
1,554839624E2;6,261368748E-3;7,553348541E-1;2,897639275E0
1,555839624E2;-1,678352207E-1;-1,832595794E-3;2,848311901E0
1,556839624E2;-3,478877544E-1;-8,034405112E-1;2,122756653E-2
1,557839624E2;-2,072360367E-1;-4,581489414E-2;-1,060767531E0
1,558839624E2;-1,617265791E-1;-3,469714522E-1;-2,000583649E0
1,559839624E2;-8,437576294E-1;-6,759223938E-1;-2,114510059E0
1,560839624E2;-8,962920308E-1;-9,240863919E-1;-1,373988628E0
1,561839624E2;-1,038470957E-2;-9,636399150E-2;-7,082982659E-1
1,562839624E2;6,160575747E-1;1,300837517E0;1,846798301E0
1,563839624E2;3,539963961E-1;8,738427162E-1;2,583501816E0
1,564839624E2;-4,978551716E-2;-3,570507467E-1;2,057241440E0
1,565839624E2;-2,338086665E-1;-7,722864151E-1;6,745479703E-1
1,566839624E2;1,446223408E-1;-6,261368748E-3;-1,256855249E0
1,567839624E2;1,145372353E-2;-3,226895630E-1;-1,890475273E0
1,568839624E2;-1,024268270E0;-5,795583725E-1;-1,515556693E0
1,569839624E2;-1,085812926E0;-5,297728777E-1;-1,295186996E0
1,570839624E2;5,036584139E-1;2,686280012E-1;-1,114829108E-1
1,571839624E2;8,480336666E-1;1,426981211E0;1,534035325E0
1,572839624E2;1,485929638E-1;2,591595948E-1;2,811354637E0
1,573839624E2;1,082758680E-1;-5,241223574E-1;1,076344609E0
1,574839624E2;4,276056588E-2;-5,563455224E-1;-3,297145069E-1
1,575839624E2;8,674286306E-2;1,724167168E-1;-1,798998117E0
1,576839624E2;-2,548835278E-1;-5,325217843E-1;-2,361604929E0
1,577839624E2;-1,073748350E0;-6,595817208E-1;-1,595732689E0
1,578839624E2;-2,107485086E-1;-2,099849284E-1;-1,052520871E0
1,579839624E2;6,594290137E-1;1,698969007E0;1,249982953E0
1,580839624E2;2,968805134E-1;1,105055213E0;2,097863913E0
1,581839624E2;-1,275181174E-1;-2,425135076E-1;2,654056787E0
1,582839624E2;-1,386664063E-1;-5,291619897E-1;1,420261741E0
1,583839624E2;2,700024247E-1;5,314527452E-2;-1,076955438E0
1,584839624E2;3,924809024E-2;8,093964309E-2;-1,528384805E0
1,585839624E2;-7,447974682E-1;-5,917757154E-1;-1,805717707E0
1,586839624E2;-1,259604096E0;-9,870055318E-1;-1,593594670E0
1,587839624E2;2,803871334E-1;5,839871764E-1;-3,798054755E-1
1,588839624E2;4,657847583E-1;1,400255799E0;1,248150468E0
1,589839624E2;4,537201524E-1;7,812966704E-1;2,455067396E0
1,590839624E2;2,845104933E-1;2,959642112E-1;2,396882534E0
1,591839624E2;-2,532036304E-1;-6,105598211E-1;5,004513264E-1
1,592839624E2;2,186897546E-1;-3,878994286E-1;-1,149495721E0
1,593839624E2;-2,428189367E-1;-1,102000952E0;-1,701107025E0
1,594839624E2;-5,943718553E-1;-2,649627924E-1;-2,230727196E0
1,595839624E2;-6,742424965E-1;-7,556403279E-1;-1,446070790E0
1,596839624E2;2,260201424E-1;6,467535496E-1;-4,642575979E-1
1,597839624E2;4,421137273E-1;1,216232657E0;1,913229942E0
1,598839624E2;-3,985895589E-2;2,037235647E-1;2,741563320E0
1,599839624E2;-1,902845204E-1;-1,748601794E-1;1,585500717E0
1,600839624E2;1,740965992E-1;-1,947132945E-1;-1,094823241E0
1,601839624E2;8,017606288E-2;-6,200282276E-2;-1,776548862E0
1,602839624E2;-8,226827979E-1;-4,893030524E-1;-2,117259026E0
1,603839624E2;-9,644035101E-1;-7,447974682E-1;-1,647809029E0
1,604839624E2;1,339322031E-1;6,931793094E-1;1,469130963E-1
1,605839624E2;3,645338416E-1;1,050840974E0;1,398270488E0
1,606839624E2;3,746131063E-1;9,540187716E-1;2,414902925E0
1,607839624E2;1,989893466E-1;4,631885588E-1;2,684447289E0
1,608839624E2;-2,776382565E-1;-2,138028294E-1;-2,304489166E-1
1,609839624E2;-2,716823220E-1;3,788891733E-1;-1,186758399E0
1,610839624E2;-1,179122686E0;2,970332205E-1;-2,553569555E0
1,611839624E2;-1,376737595E0;1,218676195E-1;-2,570673704E0
1,612839624E2;-8,408560157E-1;-2,576324046E-1;-1,252273798E0
1,613839624E2;2,455678284E-1;1,691638589E0;7,043276429E-1
1,614839624E2;8,689557761E-2;7,215845585E-1;2,972775698E0
1,615839624E2;6,078109145E-2;6,337726861E-2;3,136182070E0
1,616839624E2;-1,322523206E-1;-7,066183686E-1;6,068946123E-1
1,617839624E2;9,498954564E-2;1,852448881E-1;-8,177958727E-1
1,618839624E2;-2,043344229E-1;1,207986027E-1;-1,140179992E0
1,619839624E2;-6,186537743E-1;-5,467243791E-1;-1,706146598E0
1,620839624E2;-1,045037746E0;-4,773911834E-1;-1,416596532E0
1,621839624E2;-5,201517344E-1;-1,169806942E-1;-8,074111342E-1
1,622839624E2;5,965099335E-1;1,945453048E0;1,396896124E0
1,623839624E2;-3,109304011E-1;4,173736870E-1;2,486832380E0
1,624839624E2;-2,212859392E-1;-1,285871267E-1;2,152536392E0
1,625839624E2;6,368270516E-2;-1,977676302E-1;-3,727805018E-1
1,626839624E2;-1,872301996E-1;2,773328125E-1;-1,509753466E0
1,627839624E2;-7,202101350E-1;-7,063129544E-1;-2,075262070E0
1,628839624E2;-1,154688001E0;-8,277224302E-1;-1,797929168E0
1,629839624E2;-3,373503387E-1;-3,498730659E-1;-7,942775488E-1
1,630839624E2;3,190243840E-1;6,134614348E-1;4,415028691E-1
1,631839624E2;4,909829497E-1;9,314168096E-1;2,501645803E0
1,632839624E2;2,745839357E-1;3,375030309E-2;2,788599730E0
1,633839624E2;1,078177169E-1;-7,597636580E-1;8,252789378E-1
1,634839624E2;1,235474944E-1;-3,171917796E-1;-9,492846131E-1
1,635839624E2;-2,284636050E-1;-2,199114859E-1;-1,625817895E0
1,636839624E2;-5,561928153E-1;-5,684100986E-1;-2,490803003E0
1,637839624E2;-8,439103365E-1;-7,858781219E-1;-1,429271936E0
1,638839624E2;2,412917651E-2;1,951714456E-1;-7,006624341E-1
1,639839624E2;5,789475441E-1;1,253648162E0;1,820225716E0
1,640839624E2;2,538145185E-1;7,884743214E-1;2,917950630E0
1,641839624E2;-4,581489484E-4;-5,951354504E-1;1,788918853E0
1,642839624E2;-1,007927656E-1;-8,895725012E-1;1,728748679E-1
1,643839624E2;-3,695734590E-2;-7,208210230E-2;-1,490969300E0
1,644839624E2;-1,710422635E-1;-4,161519408E-1;-2,091602564E0
1,645839624E2;-1,067028880E0;-5,888741016E-1;-2,062433720E0
1,646839624E2;-6,006332636E-1;-6,082690954E-1;-1,394452691E0
1,647839624E2;6,592763066E-1;1,342681766E0;1,313971162E0
1,648839624E2;3,107776940E-1;6,476698518E-1;2,911078215E0
1,649839624E2;4,138612002E-2;-1,151480973E-1;2,743854046E0
1,650839624E2;8,063421398E-2;-3,888157308E-1;-2,907718420E-1
1,651839624E2;-2,397646010E-2;1,125519201E-1;-1,407280803E0
1,652839624E2;-3,005456924E-1;-2,144137025E-1;-2,529287577E0
1,653839624E2;-1,084438562E0;-5,225952268E-1;-2,107790470E0
1,654839624E2;-7,987063378E-2;2,150245607E-1;-9,114109278E-1
1,655839624E2;5,427537560E-1;9,692904353E-1;3,184134960E-1
1,656839624E2;2,396118939E-1;1,010523796E0;2,709492683E0
1,657839624E2;3,084869497E-2;2,802344263E-1;3,039512634E0
1,658839624E2;-1,374446787E-3;-1,121701360E0;6,003278494E-1
1,659839624E2;8,017606288E-2;-7,632761002E-1;-1,074359298E0
1,660839624E2;2,458732575E-2;-1,420261711E-2;-2,257910728E0
1,661839624E2;-5,732970238E-1;-4,303545654E-1;-2,461939573E0
1,662839624E2;-6,643159389E-1;-1,094975948E0;-1,239903688E0
1,663839624E2;2,432770878E-1;7,968736887E-1;-3,110831380E-1
1,664839624E2;5,488623977E-1;1,129337072E0;2,210263252E0
1,665839624E2;4,106541574E-1;8,904888034E-1;2,930015087E0
1,666839624E2;8,017606288E-2;-4,279111028E-1;1,399644971E0
1,667839624E2;-3,680463135E-2;-4,923573732E-1;-3,720169365E-1
1,668839624E2;-9,407325089E-2;2,513710558E-1;-1,521512628E0
1,669839624E2;-4,456261992E-1;-1,059851199E-1;-2,786920071E0
1,670839624E2;-9,314168096E-1;-1,073442936E0;-1,480431914E0
1,671839624E2;-2,813034356E-1;-2,273945808E-1;-7,591527700E-1
1,672839624E2;4,816672504E-1;1,395979762E0;1,813506246E0
1,673839624E2;-1,000291854E-1;-2,458732575E-2;2,876869917E0
1,674839624E2;-2,394591719E-1;-4,130976200E-1;1,882839441E0
1,675839624E2;9,987647086E-2;-4,891503453E-1;-6,661485434E-1
1,676839624E2;1,175915599E-1;6,933320314E-2;-1,883450270E0
1,677839624E2;-5,761986375E-1;-5,574145317E-1;-2,541963100E0
1,678839624E2;-9,407324791E-1;-1,600925088E0;-1,823432803E0
1,679839624E2;5,236642361E-1;5,745187402E-1;1,925752759E-1
1,680839624E2;8,115344644E-1;1,755168557E0;1,649488926E0
1,681839624E2;3,222314268E-2;2,347249687E-1;3,094795942E0
1,682839624E2;-4,581489135E-3;-1,965458989E-1;2,425287724E0
1,683839624E2;-5,161811411E-2;-4,584543705E-1;-9,372199774E-1
1,684839624E2;9,376781434E-2;2,671008408E-1;-1,694692850E0
1,685839624E2;-7,626652718E-1;-6,458373070E-1;-2,391232014E0
1,686839624E2;-1,288009405E0;-1,060462117E0;-1,998140216E0
1,687839624E2;9,605856240E-2;5,769622326E-1;-3,848451003E-2
1,688839624E2;5,465716720E-1;1,471116185E0;1,757917404E0
1,689839624E2;2,455678284E-1;6,933320314E-2;3,259271622E0
1,690839624E2;1,585195363E-1;-3,304781020E-1;2,510198116E0
1,691839624E2;1,010981947E-1;-3,683517575E-1;-5,644394755E-1
1,692839624E2;1,531744599E-1;2,843577862E-1;-2,088853598E0
1,693839624E2;-5,516113043E-1;-7,582364678E-1;-2,756376743E0
1,694839624E2;-9,709703326E-1;-1,020908594E0;-1,948660135E0
1,695839624E2;2,321287990E-2;7,710646391E-1;-2,281581759E-1
1,696839624E2;4,204280078E-1;1,023962855E0;1,491427541E0
1,697839624E2;4,152356386E-1;6,354525685E-1;3,014161825E0
1,698839624E2;-1,941024363E-1;-4,810563922E-1;1,254259109E0
1,699839624E2;-7,910704613E-2;-9,115636349E-1;-3,031418920E-1
1,700839624E2;-4,002694488E-1;-7,727445662E-2;-1,691485882E0
1,701839624E2;-4,317290187E-1;-1,320996135E-1;-2,653140545E0
1,702839624E2;-7,687739134E-1;-6,982190013E-1;-1,585958838E0
1,703839624E2;7,590000331E-2;-9,468411095E-3;-5,274821520E-1
1,704839624E2;6,861543655E-1;1,636202574E0;2,209041357E0
1,705839624E2;3,408628106E-1;5,949827433E-1;2,831513166E0
1,706839624E2;1,513418704E-1;-5,403103232E-1;1,746463776E0
1,707839624E2;2,507601976E-1;-5,992587805E-1;-1,603521258E-1
1,708839624E2;-2,686280012E-1;-8,280278444E-1;-1,603521228E0
1,709839624E2;-2,599231601E-1;1,548543423E-1;-2,215455532E0
1,710839624E2;-1,296561480E0;-9,961684942E-1;-1,833512068E0
1,711839624E2;-1,878410578E-1;3,425426781E-1;-9,784533978E-1
1,712839624E2;4,318817258E-1;1,443780065E0;1,876272559E0
1,713839624E2;2,655736506E-1;1,152091861E0;2,693304777E0
1,714839624E2;1,003346145E-1;-2,641992271E-1;2,089464664E0
1,715839624E2;-7,819075137E-2;-1,027475357E0;4,964807332E-1
1,716839624E2;-5,513058975E-2;2,383901626E-1;-1,790293336E0
1,717839624E2;-7,895433158E-2;-1,153008118E-1;-1,939038992E0
1,718839624E2;-1,063669086E0;-5,325217843E-1;-2,030668736E0
1,719839624E2;-4,529565871E-1;-2,512183189E-1;-1,421483397E0
1,720839624E2;6,250678897E-1;1,402393937E0;1,786780834E0
1,721839624E2;4,422664344E-1;1,186300278E0;2,578462124E0
1,722839624E2;1,282816976E-1;-1,189660057E-1;2,395202637E0
1,723839624E2;2,412917651E-2;-4,886921961E-3;-7,538077235E-1
1,724839624E2;3,436116874E-2;2,509129047E-1;-1,553583026E0
1,725839624E2;-7,087563872E-1;-4,300491214E-1;-2,311666727E0
1,726839624E2;-1,174388409E0;-6,168211699E-1;-1,969429493E0
1,727839624E2;8,552113548E-3;2,269364446E-1;-2,703078687E-1
1,728839624E2;3,541491330E-1;1,244027019E0;1,247234106E0
1,729839624E2;7,834346592E-2;5,856670737E-1;2,969110489E0
1,730839624E2;-5,558873713E-2;-1,737911552E-1;2,755155087E0
1,731839624E2;-2,367102914E-2;-6,508769393E-1;-2,591595948E-1
1,732839624E2;-5,696318299E-2;2,153299935E-2;-1,513113260E0
1,733839624E2;-4,668537676E-1;-5,184718966E-1;-2,258368731E0
1,734839624E2;-1,127504468E0;-9,422596693E-1;-2,008372307E0
1,735839624E2;-6,001751125E-2;3,145955876E-2;-8,671231866E-1
1,736839624E2;4,124867618E-1;5,786421299E-1;5,931501389E-1
1,737839624E2;3,000875413E-1;6,817256212E-1;2,645351887E0
1,738839624E2;1,730275750E-1;-2,309070677E-1;2,886338234E0
1,739839624E2;3,112358451E-1;-9,184358716E-1;2,924517393E-1
1,740839624E2;2,788599730E-1;-2,136501223E-1;-1,058171272E0
1,741839624E2;-2,594650090E-1;-1,730275750E-1;-2,449111462E0
1,742839624E2;-8,440630436E-1;-4,315762818E-1;-2,273945808E0
1,743839624E2;-2,845104933E-1;-4,925101101E-1;-1,131780624E0
1,744839624E2;3,497203588E-1;5,739079118E-1;-5,803219974E-3
1,745839624E2;3,711006343E-1;1,081078768E0;2,371989727E0
1,746839624E2;1,863138936E-2;-2,657263726E-2;3,060740232E0
1,747839624E2;-4,856378585E-2;-9,279043078E-1;9,581421614E-1
1,748839624E2;-2,066251636E-1;6,291911751E-2;-1,537853241E0
1,749839624E2;-3,552181423E-1;-1,374446787E-3;-1,892307758E0
1,750839624E2;-8,684976697E-1;-5,911648273E-1;-1,884977460E0
1,751839624E2;-6,383541822E-1;-9,527970552E-1;-1,458746195E0
1,752839624E2;6,386595964E-1;8,773552179E-1;7,153232098E-1
1,753839624E2;6,733261943E-1;6,495024562E-1;2,008524895E0
1,754839624E2;2,455678284E-1;-4,526511431E-1;2,780200481E0
1,755839624E2;2,037235647E-1;-9,385944605E-1;1,476461291E0
1,756839624E2;2,183843218E-2;-1,924225539E-1;-1,181718826E0
1,757839624E2;3,283400834E-2;-1,256855279E-1;-1,815949678E0
1,758839624E2;-6,391177773E-1;-8,764389157E-1;-2,576324224E0
1,759839624E2;-6,916521788E-1;-1,546558142E0;-1,862680793E0
1,760839624E2;6,617197990E-1;1,245554209E0;-1,973094791E-1
1,761839624E2;6,632469296E-1;6,545420885E-1;1,368185401E0
1,762839624E2;6,058256030E-1;-6,520986557E-2;2,766455889E0
1,763839624E2;3,536909819E-1;-6,774495840E-1;1,983937621E0
1,764839624E2;7,880161703E-2;-1,007011414E0;-1,079704314E-1
1,765839624E2;1,809688359E-1;-1,380555481E-1;-1,331380844E0
1,766839624E2;2,993239649E-2;-2,828305960E-1;-2,163684607E0
1,767839624E2;-4,790710807E-1;-9,149234295E-1;-1,982563138E0
1,768839624E2;-2,773328125E-1;-7,666358948E-1;-1,529759288E0
1,769839624E2;4,619668424E-1;2,814561725E-1;-5,983424783E-1
1,770839624E2;8,304712772E-1;7,690793276E-1;1,743867517E0
1,771839624E2;7,092145681E-1;6,333145499E-1;2,377182007E0
1,772839624E2;7,238753140E-2;-5,326744914E-1;1,819003940E0
1,773839624E2;1,989893466E-1;-7,603744864E-1;-8,342891932E-1
1,774839624E2;2,414444834E-1;-3,917173445E-1;-1,371087074E0
1,775839624E2;-3,187189400E-1;-1,901318133E-1;-2,440406561E0
1,776839624E2;-6,611089110E-1;-1,020755768E0;-1,934610248E0
1,777839624E2;1,742493063E-1;2,066251636E-1;-1,042136073E0
1,778839624E2;6,520986557E-1;6,644686460E-1;1,751656085E-1
1,779839624E2;6,250678897E-1;1,117119789E0;2,236377716E0
1,780839624E2;2,425135076E-1;2,157881409E-1;2,576782227E0
1,781839624E2;7,437284291E-2;-1,040609002E0;1,003193498E0
1,782839624E2;1,803579628E-1;-7,284567952E-1;-4,799873531E-1
1,783839624E2;1,377501190E-1;-2,536617815E-1;-1,471727133E0
1,784839624E2;-1,618792862E-1;-6,646214128E-1;-1,951867223E0
1,785839624E2;-8,092437387E-1;-4,561636150E-1;-1,408960700E0
1,786839624E2;1,072068512E-1;-2,287690341E-1;-9,929614663E-1
1,787839624E2;7,823656797E-1;7,145596147E-1;7,924449444E-1
1,788839624E2;7,954992652E-1;1,103986263E0;2,042733431E0
1,789839624E2;2,121229619E-1;-4,337143153E-2;2,455525637E0
1,790839624E2;1,417207420E-1;-8,006916046E-1;1,094212413E0
1,791839624E2;2,747366428E-1;-1,136209369E-1;-1,475392342E0
1,792839624E2;2,377792895E-1;-7,544185966E-2;-1,537395120E0
1,793839624E2;-7,651087046E-1;-9,121745229E-1;-2,314568520E0
1,794839624E2;-8,549059033E-1;-2,973386645E-1;-1,497077942E0
1,795839624E2;5,484042764E-1;4,534147382E-1;-7,101308554E-2
1,796839624E2;5,696318150E-1;1,115134478E0;2,113899231E0
1,797839624E2;3,643811047E-1;4,810563922E-1;2,860071182E0
1,798839624E2;6,933320314E-2;-6,649268270E-1;1,296866894E0
1,799839624E2;3,375030309E-2;-7,803803682E-1;-3,373503387E-1
1,800839624E2;1,495092660E-1;4,718934000E-2;-1,705230355E0
1,801839624E2;-9,911288321E-2;-4,143193662E-1;-2,330603600E0
1,802839624E2;-9,482156038E-1;-6,832527518E-1;-1,734399199E0
1,803839624E2;-3,168863356E-1;-3,564398587E-1;-1,112538338E0
1,804839624E2;5,580254197E-1;1,487304211E0;1,546710849E0
1,805839624E2;4,289801121E-1;1,123686671E0;2,266157389E0
1,806839624E2;1,753183305E-1;-1,206458881E-1;2,556929111E0
1,807839624E2;1,188132912E-1;-7,883216143E-1;1,300226688E0
1,808839624E2;1,805106848E-1;1,414152980E-1;-1,368490815E0
1,809839624E2;-4,123340361E-3;-1,412625909E-1;-1,844965816E0
1,810839624E2;-9,798278809E-1;-7,742717266E-1;-2,213164806E0
1,811839624E2;-1,094212413E0;-6,281222105E-1;-1,572519898E0
1,812839624E2;2,232712507E-1;9,595165849E-1;2,324342281E-1
1,813839624E2;4,926628172E-1;1,424385071E0;1,554193854E0
1,814839624E2;6,979135424E-2;2,073887438E-1;2,824640989E0
1,815839624E2;-1,893682219E-2;-1,843285859E-1;2,163073778E0
1,816839624E2;1,354593635E-1;-4,017966092E-1;-4,645630121E-1
1,817839624E2;2,380847335E-1;9,590584040E-2;-1,692402124E0
1,818839624E2;-4,010330439E-1;-7,690793276E-1;-2,141999006E0
1,819839624E2;-1,009760261E0;-8,784242272E-1;-2,213775635E0
1,820839624E2;5,406157300E-2;-2,611448988E-2;-6,850853562E-1
1,821839624E2;6,640105247E-1;1,692096710E0;1,932166815E0
1,822839624E2;3,239113092E-1;9,320276380E-1;2,381152630E0
1,823839624E2;-6,414085161E-3;-4,146247804E-1;2,203390837E0
1,824839624E2;-1,050688252E-1;-1,026406288E0;5,432119370E-1
1,825839624E2;5,070181563E-2;4,749477282E-2;-1,406822681E0
1,826839624E2;-1,780672222E-1;-9,330966324E-2;-2,192090034E0
1,827839624E2;-1,080773354E0;-7,290676832E-1;-1,773189068E0
1,828839624E2;-7,954992652E-1;-9,130908251E-1;-1,383151650E0
1,829839624E2;5,189300179E-1;1,081078768E0;9,509644508E-1
1,830839624E2;4,957171381E-1;1,137125611E0;2,094351530E0
1,831839624E2;1,524108797E-1;-1,893682331E-1;2,618626595E0
1,832839624E2;-3,573561832E-2;-4,512766898E-1;1,834122896E0
1,833839624E2;2,147191316E-1;-3,665191531E-1;-1,153619051E0
1,834839624E2;5,986479297E-2;-1,690569520E-1;-1,686140776E0
1,835839624E2;-7,725918293E-1;-7,130324841E-1;-2,242944479E0
1,836839624E2;-1,029002547E0;-4,948008358E-1;-1,801594377E0
1,837839624E2;1,041525230E-1;3,920227587E-1;-2,179261744E-1
1,838839624E2;5,268712640E-1;1,470505357E0;1,281595230E0
1,839839624E2;3,782783151E-1;6,461427212E-1;2,941010714E0
1,840839624E2;1,750128865E-1;-1,941024363E-1;2,618473768E0
1,841839624E2;-7,070764899E-2;-6,397286057E-1;-2,622139156E-1
1,842839624E2;6,398813426E-2;-2,015855312E-1;-1,186147571E0
1,843839624E2;-8,994990587E-2;-5,855143666E-1;-2,509129047E0
1,844839624E2;-6,751587987E-1;-6,339253783E-1;-2,076025486E0
1,845839624E2;-1,867720485E-1;-2,814561725E-1;-1,088714600E0
1,846839624E2;7,499898076E-1;1,618640184E0;1,326493859E0
1,847839624E2;5,367978215E-1;9,428704977E-1;2,218204498E0
1,848839624E2;1,472185254E-1;-2,160935849E-1;2,574796915E0
1,849839624E2;3,772092983E-2;-5,493205786E-1;1,339322090E0
1,850839624E2;1,539380401E-1;2,318233550E-1;-1,282206178E0
1,851839624E2;-1,756237634E-2;1,795943826E-1;-1,675450683E0
1,852839624E2;-1,040609002E0;-3,707951903E-1;-2,167349815E0
1,853839624E2;-1,130253434E0;-5,677992702E-1;-1,756237626E0
1,854839624E2;3,497203439E-2;7,009678483E-1;4,360050559E-1
1,855839624E2;3,790418804E-1;1,545947194E0;1,656361103E0
1,856839624E2;1,212567538E-1;5,207626224E-1;3,118619680E0
1,857839624E2;-8,597928286E-2;-3,103195429E-1;2,316095591E0
1,858839624E2;-4,489859566E-2;-5,100724697E-1;-6,823364496E-1
1,859839624E2;-5,635231733E-2;-4,871650413E-2;-1,424385071E0
1,860839624E2;-5,818491578E-1;-4,369213581E-1;-2,305099964E0
1,861839624E2;-1,172861218E0;-7,909177542E-1;-1,893682241E0
1,862839624E2;2,043344229E-1;4,854851663E-1;-4,796819389E-1
1,863839624E2;6,727153659E-1;1,537242413E0;1,110553026E0
1,864839624E2;2,054034323E-1;8,037459254E-1;3,066390753E0
1,865839624E2;-7,406741381E-2;2,443460934E-2;2,768288612E0
1,866839624E2;-1,334740520E-1;-4,833471179E-1;-4,980078936E-1
1,867839624E2;-1,308778822E-1;-1,653917581E-1;-1,313054800E0
1,868839624E2;-5,619960427E-1;-6,669121385E-1;-2,573880672E0
1,869839624E2;-1,078329921E0;-8,185594082E-1;-2,156354427E0
1,870839624E2;-1,327104717E-1;-2,409863323E-1;-7,154759169E-1
1,871839624E2;8,222246170E-1;1,782962918E0;1,774716258E0
1,872839624E2;4,651738703E-1;9,570731521E-1;2,890767097E0
1,873839624E2;1,385136992E-1;-6,510296464E-1;1,897805572E0
1,874839624E2;2,011273801E-1;-6,438519955E-1;1,779145002E-1
1,875839624E2;-1,757764816E-1;1,965458989E-1;-1,697289109E0
1,876839624E2;-4,631885588E-1;2,616030276E-1;-2,433992624E0
1,877839624E2;-1,169959664E0;-7,189884186E-1;-1,679268599E0
1,878839624E2;-4,886921942E-1;-4,428773187E-3;-1,168279767E0
1,879839624E2;5,125159621E-1;1,277930140E0;1,800067186E0
1,880839624E2;2,973386645E-1;8,993463516E-1;2,812118053E0
1,881839624E2;-1,284344196E-1;-3,970624208E-1;2,054645300E0
1,882839624E2;1,695151068E-2;-5,919284225E-1;6,122397184E-1
1,883839624E2;3,497203439E-2;-2,840523422E-2;-1,375821233E0
1,884839624E2;-3,878994286E-1;-7,681630552E-2;-1,690264106E0
1,885839624E2;-7,444919944E-1;-3,240640163E-1;-1,709964514E0
1,886839624E2;-7,944302559E-1;-9,132435322E-1;-1,524872422E0
1,887839624E2;3,878994286E-2;3,979786932E-1;-2,109012306E-1
1,888839624E2;3,046690524E-1;9,812023044E-1;1,082147837E0
1,889839624E2;2,307543457E-1;5,114469528E-1;2,664135933E0
1,890839624E2;2,283108830E-1;3,897320330E-1;2,621375561E0
1,891839624E2;2,260201424E-1;-4,949535728E-1;5,267185569E-1
1,892839624E2;3,054326226E-4;-4,228714705E-1;-4,034765065E-1
1,893839624E2;-1,562287807E-1;2,028072625E-1;-1,032056808E0
1,894839624E2;-4,146247804E-1;3,283400834E-2;-1,942398787E0
1,895839624E2;-1,148121238E0;-2,664899528E-1;-1,860390067E0
1,896839624E2;-1,175915636E-2;8,261952549E-2;-5,351179838E-1
1,897839624E2;1,566869318E-1;6,010913849E-1;4,159992337E-1
1,898839624E2;2,979495227E-1;9,960157871E-1;2,107179642E0
1,899839624E2;1,262963861E-1;5,198463202E-1;2,488206863E0
1,900839624E2;9,437867999E-2;-5,247332454E-1;1,592220306E0
1,901839624E2;-9,498954564E-2;-6,058256030E-1;2,776382565E-1
1,902839624E2;-6,322455406E-2;-3,231477141E-1;-1,293812633E0
1,903839624E2;-2,157881409E-1;-2,527455091E-1;-1,426828504E0
1,904839624E2;-9,251554012E-1;-4,282165468E-1;-1,945147634E0
1,905839624E2;-1,021824837E0;-9,973902106E-1;-1,486845970E0
1,906839624E2;2,386955917E-1;5,441282392E-1;-5,268712714E-2
1,907839624E2;3,384193480E-1;1,013425469E0;1,098030329E0
1,908839624E2;3,787364662E-1;5,059491396E-1;2,655278444E0
1,909839624E2;1,806633919E-1;-1,032362282E-1;2,588846922E0
1,910839624E2;-2,183843218E-2;-8,469646573E-1;2,785545588E-1
1,911839624E2;9,773843735E-2;-1,195768714E-1;-7,971791625E-1
1,912839624E2;-2,209804952E-1;-5,390885845E-2;-1,825112581E0
1,913839624E2;-6,545420885E-1;-4,425718784E-1;-1,944231391E0
1,914839624E2;-8,935431242E-1;-6,401867867E-1;-1,613753319E0
1,915839624E2;-2,727513313E-1;-1,627955884E-1;-1,012967348E0
1,916839624E2;4,827362597E-1;1,248303175E0;1,559080839E0
1,917839624E2;4,010330439E-1;8,622363210E-1;2,290897369E0
1,918839624E2;1,863138936E-2;-2,993239760E-1;2,546086311E0
1,919839624E2;1,078177169E-1;-7,046330571E-1;1,262047648E0
1,920839624E2;1,015563458E-1;-1,180497110E-1;-1,323592305E0
1,921839624E2;-3,912591934E-1;-6,582073122E-2;-2,175138474E0
1,922839624E2;-8,991936445E-1;-6,453791261E-1;-2,023338318E0
1,923839624E2;-3,558290005E-1;-2,599231601E-1;-1,230282545E0
1,924839624E2;1,881465018E-1;5,267185569E-1;-6,444628537E-2
1,925839624E2;4,509712756E-1;1,172403097E0;2,160325050E0
1,926839624E2;2,437352389E-1;3,601050675E-1;3,014161825E0
1,927839624E2;1,476766765E-1;-7,695375085E-1;1,028697014E0
1,928839624E2;1,065959856E-1;-1,267545372E-1;-3,303253949E-1
1,929839624E2;-6,414085031E-1;2,301434875E-1;-1,822058320E0
1,930839624E2;-2,672535479E-1;-2,396118939E-1;-1,855655909E0
1,931839624E2;-6,611089110E-1;-2,161699295E0;-1,140027285E0
1,932839624E2;-3,594942093E-1;-5,380195379E-1;-6,438519955E-1
1,933839624E2;8,680394888E-1;1,561982393E0;1,647198081E0
1,934839624E2;5,711590052E-1;6,745479703E-1;2,608547211E0
1,935839624E2;3,347541690E-1;-6,084218025E-1;2,093587875E0
1,936839624E2;1,707368344E-1;-8,200865984E-1;5,178610086E-1
1,937839624E2;-1,997529417E-1;1,119410545E-1;-1,501048565E0
1,938839624E2;-3,657555580E-1;3,578143120E-1;-2,349387646E0
1,939839624E2;-9,433286786E-1;-4,917465150E-1;-1,983784914E0
1,940839624E2;-5,221370459E-1;-5,908594131E-1;-1,178817153E0
1,941839624E2;7,684684992E-1;1,674228907E0;1,677741408E0
1,942839624E2;5,925393105E-1;1,089172721E0;2,557998180E0
1,943839624E2;1,398881376E-1;-4,883867502E-1;2,239279270E0
1,944839624E2;1,091921628E-1;-6,792821288E-1;5,583308339E-1
1,945839624E2;-1,524108797E-1;-6,872233935E-3;-1,483180761E0
1,946839624E2;-6,206390858E-1;-3,953825235E-1;-2,125811100E0
1,947839624E2;-8,319984674E-1;-5,062545538E-1;-1,658041000E0
1,948839624E2;-2,415972054E-1;-4,083634019E-1;-6,973026991E-1
1,949839624E2;3,190243840E-1;7,145596147E-1;5,455026627E-1
1,950839624E2;3,901901841E-1;8,078693151E-1;2,361146927E0
1,951839624E2;2,136501223E-1;2,788599730E-1;2,928488016E0
1,952839624E2;2,580905706E-2;-7,787004709E-1;9,529497623E-1
1,953839624E2;5,665775016E-2;-4,634940028E-1;-4,499022663E-1
1,954839624E2;-8,277224004E-2;-1,878410578E-2;-1,712102532E0
1,955839624E2;-3,243694305E-1;-3,330742717E-1;-2,284483194E0
1,956839624E2;-9,633345008E-1;-7,006624341E-1;-1,611004353E0
1,957839624E2;-5,187773108E-1;-5,372560024E-1;-1,176984668E0
1,958839624E2;4,941899776E-1;1,435991526E0;1,391551018E0
1,959839624E2;3,686571717E-1;9,743300676E-1;2,172847748E0
1,960839624E2;3,665191308E-2;-2,825251818E-1;2,599689722E0
1,961839624E2;1,195768714E-1;-7,761042714E-1;1,475850463E0
1,962839624E2;-2,443460980E-3;-2,866485119E-1;-1,286482215E0
1,963839624E2;-1,350012124E-1;1,353066564E-1;-1,595274568E0
1,964839624E2;-6,725626588E-1;-2,545780838E-1;-2,051590919E0
1,965839624E2;-8,683449626E-1;-6,566801667E-1;-1,871996522E0
1,966839624E2;-4,764748737E-2;4,880813360E-1;-9,315694682E-3
1,967839624E2;3,556762934E-1;9,147707224E-1;1,177290082E0
1,968839624E2;3,500257730E-1;3,193297982E-1;2,959642172E0
1,969839624E2;3,043636084E-1;-2,791654170E-1;2,369699001E0
1,970839624E2;2,768746614E-1;-5,250386596E-1;-2,118175179E-1
1,971839624E2;-2,701551616E-1;2,687807009E-2;-1,685071826E0
1,972839624E2;-5,424483418E-1;-3,330742717E-1;-2,343279123E0
1,973839624E2;-1,059698462E0;-9,115636349E-1;-1,758833766E0
1,974839624E2;-3,138320148E-1;-2,214386463E-1;-9,877691269E-1
1,975839624E2;6,701191664E-1;1,492649198E0;1,822363734E0
1,976839624E2;4,156937897E-1;9,025533795E-1;2,430632830E0
1,977839624E2;1,262963861E-1;-4,288274050E-1;2,348318815E0
1,978839624E2;2,377792895E-1;-8,462010622E-1;8,109236360E-1
1,979839624E2;-1,863138936E-2;3,802636266E-2;-1,720349193E0
1,980839624E2;-3,048217595E-1;2,005165219E-1;-1,881617665E0
1,981839624E2;-1,087798238E0;-9,506590366E-1;-2,038151979E0
1,982839624E2;-8,142833710E-1;-8,374962807E-1;-1,512807727E0
1,983839624E2;4,030183554E-1;1,319774389E0;1,075886369E0
1,984839624E2;4,234823287E-1;1,318094492E0;2,250427485E0
1,985839624E2;7,605272532E-2;-2,283108830E-1;2,938261747E0
1,986839624E2;-4,489859566E-2;-6,356052756E-1;1,661248088E0
1,987839624E2;-4,642575979E-2;7,483099401E-2;-1,335809588E0
1,988839624E2;-5,345070735E-3;-5,742133409E-2;-1,648114443E0
1,989839624E2;-8,520042896E-1;-8,171849847E-1;-2,280359983E0
1,990839624E2;-1,022435665E0;-8,345946670E-1;-1,797623754E0
1,991839624E2;3,555235863E-1;7,622070909E-1;2,136501223E-1
1,992839624E2;6,675229669E-1;1,596038222E0;1,771967411E0
1,993839624E2;1,718058437E-1;2,292271852E-1;3,110373020E0
1,994839624E2;-3,313944116E-2;-4,260784984E-1;2,247984171E0
1,995839624E2;-1,408044398E-1;-6,707300544E-1;-6,927211881E-1
1,996839624E2;-1,809688359E-1;8,445212245E-2;-2,057394028E0
1,997839624E2;-6,256787181E-1;-3,885102868E-1;-2,525011539E0
1,998839624E2;-4,847215712E-1;-8,491026759E-1;-1,216079950E0
1,999839624E2;2,663372457E-1;2,703078687E-1;-3,498730659E-1
2,000839624E2;6,513350606E-1;1,275639296E0;2,260659456E0
2,001839624E2;4,905247986E-1;7,228062749E-1;3,040276289E0
2,002839624E2;-1,191187184E-2;-6,699664593E-1;1,388496757E0
2,003839624E2;7,238753140E-2;-2,646573782E-1;-4,561636150E-1
2,004839624E2;-7,101308554E-2;1,947132945E-1;-1,927585244E0
2,005839624E2;-3,926336467E-1;-8,107708693E-1;-2,690250635E0
2,006839624E2;-7,073819637E-1;-1,090852618E0;-1,439503908E0
2,007839624E2;-1,346957833E-1;2,125810981E-1;-6,343835592E-1
