"Time (s)";"Linear Acceleration x (m/s^2)";"Linear Acceleration y (m/s^2)";"Linear Acceleration z (m/s^2)"
6,340386900E-2;-1,211945772E0;-1,337143421E0;1,276087761E0
1,620739150E-1;-5,180923939E-1;1,459956169E-2;9,169578552E-1
2,607580100E-1;-1,117812157E0;1,081382990E0;-1,218760490E0
3,594258080E-1;-2,258532047E-1;1,344846249E0;2,064040184E0
4,580773000E-1;-1,491995752E-1;-7,643935084E-1;-3,449953079E0
5,567680260E-1;4,889282882E-1;-1,785310864E0;-2,811868668E0
6,554268230E-1;-2,881902695E0;3,419614792E0;-1,331291199E-1
7,541127490E-1;1,322521210E0;-2,221518517E0;-1,162044525E0
8,527674140E-1;2,073703289E0;-3,052683353E0;-9,018859863E-1
9,514521490E-1;7,359290123E-1;-3,060272217E0;-3,361001015E-1
1,050124250E0;9,012394905E0;-1,473984718E0;1,275261402E0
1,148780187E0;2,492606163E0;-2,772612572E0;-6,985541821E0
1,247381300E0;-1,217636466E0;1,040482044E0;6,968289375E0
1,346125590E0;-6,708747149E-2;1,767272949E-1;4,825222015E0
1,444805230E0;5,748351097E0;-7,186985016E-1;3,397549391E0
1,543475775E0;3,765117168E0;-1,250362396E-2;-9,515275955E-1
1,642120970E0;4,753460407E0;2,011142254E0;-4,729858875E0
1,740817841E0;1,381931782E0;-1,242083549E0;5,113485336E0
1,839484143E0;2,273558617E0;-6,185489178E0;2,553741455E0
1,938161362E0;3,475534916E0;-3,323237419E0;1,163703442E0
2,036830981E0;3,353687286E0;-2,078951836E0;1,956407309E0
2,135486033E0;1,430120468E-1;7,008411884E-1;-6,789326668E-2
2,234170871E0;5,570435524E-1;-1,150531292E0;-6,615913868E0
2,332826676E0;2,817995071E0;5,859133720E0;-2,782105923E0
2,431502215E0;6,371572495E0;1,513006926E0;-1,742247820E0
2,530172596E0;-2,881517410E-1;-5,580199242E0;-3,387150049E0
2,628841290E0;-4,098334312E-1;-5,133776665E0;-7,670483589E-1
2,727530187E0;9,620280266E-1;-1,426056981E0;-2,042506695E0
2,826189826E0;-2,079672575E0;-8,917319775E-2;-4,627029419E0
2,924856353E0;-2,105847836E0;2,173309565E0;-9,596996307E-1
3,023542146E0;-3,616960049E0;-4,388666153E-2;-2,436248779E0
3,122200292E0;1,111845970E-1;-8,188785553E0;3,510822296E0
3,220868995E0;2,187671661E0;-3,870819569E0;-4,694059849E0
3,319554777E0;6,650800705E0;-2,152312279E0;-8,993298531E0
3,418226054E0;9,225381851E0;8,984360695E-1;1,659630966E1
3,516885695E0;-2,340686798E0;-3,316321373E-1;4,727317810E0
3,615546240E0;-6,750834942E0;6,987409592E-1;-4,047004700E0
3,714243255E0;2,385201454E-1;-4,399451256E0;5,707132339E0
3,812918194E0;3,488353014E0;1,917193890E0;6,260888577E-1
3,911583205E0;5,692886353E0;2,104034901E0;2,703610420E0
4,010252762E0;2,459095478E0;1,295344830E0;6,068868637E-1
4,108915769E0;4,264226913E0;8,955041885E0;-1,922784567E0
4,207590872E0;-5,372935295E0;-6,059661388E0;5,341725349E0
4,306269178E0;1,268262863E-1;-1,263779640E0;3,164828777E0
4,404941534E0;9,469730377E0;-6,895132065E0;-1,495867372E0
4,503619515E0;-1,618179321E0;8,611092567E0;6,363761425E-1
4,602271485E0;-1,902686119E0;-5,392853737E0;3,906619549E0
4,700942986E0;1,038779068E1;-3,201642990E0;4,940601349E0
4,799626928E0;1,553528786E0;1,637247086E0;-2,585498810E0
4,898298226E0;-7,041716576E0;7,118745327E0;1,333324194E0
4,996971018E0;-1,842205524E0;4,170997143E0;5,211891532E-1
5,095629112E0;7,429267168E-1;3,913398743E0;-1,378563643E0
5,194313879E0;6,958699822E-1;-3,349399567E-2;9,971181154E-1
5,292983528E0;-4,890671968E-1;-3,658533096E-1;-1,647378802E-1
5,391657756E0;-2,066203117E0;-2,113142014E0;2,888622999E0
5,490324354E0;5,980488777E0;-5,194317818E0;-2,176815748E0
5,588988266E0;-2,378358841E-1;-5,448436737E-2;-2,306622505E0
5,687660194E0;4,090502262E0;-4,544063091E0;3,327274561E0
5,786344085E0;1,078308582E0;-3,149674654E0;3,107994318E0
5,885004275E0;3,550338984E0;5,608940125E-2;1,428221226E0
5,983676590E0;2,280356884E0;-2,472932786E-1;1,738324165E0
6,082348009E0;3,405049562E0;1,375224710E0;1,899985790E0
6,181019551E0;2,989552736E0;6,867754459E-2;-5,462117195E-1
6,279703107E0;6,561398506E-1;-1,148977995E0;4,597377777E-2
6,378369307E0;1,841332674E0;-2,717415094E0;-2,045258522E0
6,477039018E0;-2,001256943E-1;-1,939939976E0;-1,707668304E0
6,575706939E0;-5,098557472E-1;-1,082504272E0;1,826618671E0
6,674393557E0;-1,944259524E0;-1,793374777E0;8,157501221E-1
6,773064020E0;-2,457334518E0;-2,087347984E0;2,330125332E0
6,871737952E0;-1,238570213E-1;7,203369141E-1;1,299187660E0
6,970394499E0;2,398607731E-1;-9,136703014E-1;-2,479572296E-1
7,069058656E0;3,314549923E-1;-5,495181084E-1;1,205466747E0
7,167752597E0;1,712312937E0;4,579188347E0;1,856098175E-1
7,266425726E0;-1,226782799E-2;-6,877040863E-2;-1,097829819E0
7,365098316E0;9,545347691E-1;4,522562027E-2;-1,640536785E0
7,463766237E0;6,943938732E-1;3,581299543E0;-5,314335823E-1
7,562429955E0;6,744177341E-1;1,652881622E0;-7,883110046E-1
7,661107296E0;1,905370474E0;-3,438615799E-2;-2,527462482E0
7,759795367E0;4,327971935E-1;-7,657508850E-1;-8,601603508E-1
7,858457509E0;-1,273097634E0;-3,419961929E-1;1,062972546E0
7,957132388E0;-1,422590852E0;-2,275403023E0;-2,397340298E0
8,055790847E0;-1,134351254E0;-7,288837433E-1;1,274073124E0
8,154474903E0;8,236265182E-2;-1,958656311E-2;-1,748362541E0
8,253151225E0;1,471371651E-1;2,657036781E-1;-5,451717377E-1
8,351824415E0;1,588733673E0;2,374143600E-1;-1,563769341E0
8,450499975E0;2,550483704E0;8,622417450E-1;-1,926924706E0
8,549151019E0;-8,684587479E-2;-1,523294449E0;1,324657917E0
8,647836711E0;-2,440404415E0;-1,108225822E0;5,289683342E-1
8,746509117E0;-2,759422541E0;1,220454693E0;1,521255493E0
8,845183121E0;-1,217975616E-1;1,465567112E0;-5,140123367E-1
8,943855527E0;-1,720619202E-1;2,853567839E0;-1,353526115E-1
9,042513031E0;4,652118683E-2;8,429841995E-1;-1,149316788E0
9,141199465E0;-1,676633358E-1;-5,166282654E-1;6,503801346E-1
9,239869196E0;-1,590309143E-1;-1,400222778E-1;-2,193483829E0
9,338543423E0;4,724025726E-2;4,602632523E-1;-4,288136959E-1
9,437200611E0;9,655282497E-1;-2,694849968E0;-2,803292274E-1
9,535865256E0;2,370467186E-1;-4,102363586E-1;2,261896133E-1
9,634560430E0;-1,601648331E-1;5,669488907E-1;-2,692136765E-1
9,733228564E0;-1,154279709E-1;-1,952266693E-2;9,287452698E-2
9,831903096E0;-1,695413589E-1;-1,499855518E-1;1,347684860E-2
9,930575146E0;-2,039690495E0;2,759244204E0;2,399271488E0
1,002923870E1;-1,772086382E0;5,005314350E0;1,055251598E0
1,012792279E1;1,638471603E0;-5,384945869E-1;-8,483433723E-1
1,022659443E1;-1,362031221E0;-9,096431732E-2;2,004189491E-1
1,032526685E1;1,283563375E0;-2,831270218E0;-2,002988100E0
1,042393841E1;1,591446161E0;-6,245555878E-1;-1,286803961E0
1,052259026E1;1,100177288E0;-8,439083099E-1;-6,621146202E-1
1,062127133E1;1,535298824E0;-1,981879711E0;-2,919492722E0
1,071995561E1;-5,524511337E-1;-1,288371563E0;2,591425180E0
1,081862911E1;-1,521460056E0;4,500770569E-2;1,361534119E0
1,091728868E1;-1,733252764E0;1,656391382E0;1,445960522E0
1,101596109E1;-1,374092340E0;3,465163946E0;2,100016117E0
1,111464145E1;1,292188883E0;-4,163074493E-2;2,914886475E-1
1,121329068E1;3,925881147E0;-4,771882057E0;-4,713213921E0
1,131199050E1;1,864804983E0;2,457971573E-1;-1,377577782E-1
1,141066391E1;-1,660709381E-1;-1,670263290E0;-1,440034151E0
1,150932215E1;3,939189911E-1;-1,984417439E0;-1,842054367E0
1,160800700E1;-7,259788513E-1;-1,053690434E0;3,756318092E-1
1,170668245E1;-8,565306664E-1;-1,777080059E0;-1,293670177E0
1,180535783E1;-3,838081360E0;5,858321190E-1;3,209124088E0
1,190402438E1;-3,368310690E0;5,669759274E0;1,213359833E0
1,200268602E1;1,377048492E0;-9,817519188E-1;-3,132667065E0
1,210135862E1;5,898618698E-1;2,417304039E0;-1,178516388E0
1,220004283E1;-1,070852280E-1;4,417991638E-1;-1,904690027E0
1,229871666E1;3,967361212E0;-5,006510735E0;-1,639767170E0
1,239738618E1;2,993891239E-1;1,041078568E0;1,609620333E0
1,249604549E1;-3,737776279E-1;-1,861857414E0;1,896300793E0
1,259474327E1;1,053172588E0;-4,044408798E-1;1,771185875E0
1,269340314E1;-2,686684132E0;1,614097834E0;4,399715424E0
1,279208278E1;-2,501966238E0;1,530478477E0;1,240127563E0
1,289074526E1;-1,814611673E0;7,318329811E-1;2,522249222E0
1,298941056E1;9,080722332E-1;-1,635217667E-1;6,354148388E-1
1,308808412E1;1,301477194E0;-1,967149734E0;-1,165486574E0
1,318676831E1;1,260056257E0;-2,739022255E0;-1,656594515E0
1,328544092E1;7,727007866E-1;-1,210768700E0;-3,566923141E-1
1,338411104E1;8,806705475E-3;-1,334450245E0;-4,725170135E-1
1,348277138E1;4,555606842E-2;-1,803818703E0;1,108773232E0
1,358145819E1;-6,174424171E0;1,660977006E0;1,550329208E0
1,368012917E1;-3,802353144E0;4,409156799E0;3,318691492E0
1,377880280E1;-1,145289421E0;5,380916595E-2;-9,151353836E-1
1,387746525E1;2,831979036E0;-6,271982193E0;-5,336199284E0
1,397612549E1;1,222179174E0;1,385889053E-1;-1,557149410E0
1,407480861E1;-4,842259884E-1;-2,386013985E0;-1,695105076E0
1,417349195E1;3,203141689E0;-8,010251045E0;-2,985009670E0
1,427216117E1;-1,676531315E0;1,714024305E0;4,018376827E0
1,437083485E1;-2,093693495E0;-3,068877697E0;4,138208389E0
1,446949618E1;-2,512345791E0;3,482191086E0;-1,415028572E0
1,456820199E1;-1,896008730E0;2,955825806E0;2,309024096E0
1,466686118E1;-3,605384827E-1;-9,400367737E-1;1,334456444E0
1,476553400E1;5,544297695E-1;-3,533833504E0;-2,804098606E0
1,486420211E1;2,656630039E0;-1,649606705E0;-4,295197487E0
1,496286184E1;-7,620184422E-1;-1,361226082E0;-2,222637415E0
1,506156588E1;1,617339611E0;-2,500873566E0;-1,649147034E0
1,516022252E1;-2,415671349E-1;-6,132502556E-1;2,101969242E0
1,525892248E1;2,071061134E-1;-2,818272591E0;3,685474396E-2
1,535756219E1;-3,979592323E0;5,129825592E0;4,678902149E0
1,545622146E1;6,869959831E-1;-2,862930298E-3;-7,012863159E-1
1,555492958E1;7,487297058E-2;7,223320007E-1;1,453123093E-1
1,565361040E1;1,713547468E0;-1,627115250E0;3,776044846E-1
1,575223218E1;2,185855389E0;-4,521648407E0;-2,756163597E0
1,585093980E1;-2,988839149E-1;-6,765298843E-1;-3,723869324E-1
1,594957698E1;2,506419420E0;-6,361227036E-1;1,205738544E0
1,604830124E1;2,222504616E0;-1,663951397E0;1,317714214E0
1,614694424E1;-7,469232082E-1;4,725377560E-1;3,213925838E0
1,624563533E1;-5,060534477E0;5,210322857E0;1,236807346E0
1,634429687E1;1,554081440E0;2,521347046E0;2,416554928E0
1,644292808E1;1,840769529E0;-1,472043514E0;2,046392918E0
1,654165982E1;8,626008034E-1;-2,446039677E0;6,308221817E-2
1,664032776E1;2,717987299E0;-1,644666672E0;-1,151561737E-1
1,673902162E1;4,108238220E-1;-1,331302166E0;2,531673908E0
1,683765503E1;1,625032663E0;-1,290182590E0;3,327199221E0
1,693630575E1;3,703719139E0;-2,879108429E0;8,306436539E-1
1,703504934E1;8,478889465E-1;-1,296689510E0;1,946438789E0
1,713368674E1;5,553923607E0;1,713424325E0;-8,887678146E0
1,723235982E1;-6,414234161E0;1,753892183E0;4,555721760E0
1,733100950E1;-3,707022667E-1;6,489851475E-1;3,847927094E0
1,742966693E1;-9,069886208E-1;1,889316082E0;2,088696957E0
1,752838414E1;8,259415627E-2;6,222829819E-1;2,094568014E0
1,762705296E1;3,541735172E0;-2,057291031E0;1,696518421E0
1,772569845E1;2,304004192E0;5,083007812E-1;4,017399788E0
1,782440296E1;4,652217388E0;-6,386732578E0;-5,943918228E0
1,792302539E1;6,728661060E-1;-3,584242344E0;2,085726738E0
1,802174690E1;3,957441568E0;-3,412027359E-1;1,582593918E-1
1,812038454E1;2,081391573E0;-1,281578541E0;2,073084831E0
1,821904713E1;1,427449942E0;-1,020776749E0;2,168377399E0
1,831772377E1;-5,146285057E0;2,733700275E-1;6,303287029E0
1,841639246E1;-2,168071270E-1;-2,664107323E0;-1,050969124E0
1,851510495E1;-1,802665710E0;2,999338150E0;5,933961868E-1
1,861377538E1;3,719058990E0;1,772101402E0;3,691129684E0
1,871240067E1;1,112663269E0;-7,115255356E0;2,068471909E-1
1,881113234E1;-1,255803108E0;-4,370082855E0;8,812499046E-1
1,890974880E1;1,562763453E0;-7,002010345E-1;-9,716086388E-1
1,900847333E1;3,879284859E-1;-1,969268322E0;1,217020988E0
1,910713520E1;-1,129191399E0;-1,263906956E0;2,666620016E0
1,920579047E1;-3,267793179E0;1,513381004E-1;4,353567123E0
1,930446046E1;2,488880157E0;-2,730890512E0;-9,795312881E-1
1,940310451E1;-3,541992664E0;3,237625360E0;3,954789877E0
1,950183904E1;-1,591718674E0;5,288400650E-1;6,851110458E-1
1,960048759E1;8,816766739E-1;1,394936085E0;-1,869863033E0
1,969917357E1;1,076799154E0;8,516864777E-1;1,983862042E0
1,979785016E1;1,393688440E0;-4,170710564E0;-1,671195984E0
1,989647648E1;6,990044117E-1;2,713518143E-1;-1,172590733E0
1,999520716E1;4,163434505E-1;-1,717910767E0;-3,018808365E-1
2,009386389E1;4,261012077E-1;-2,132569313E0;-1,625242233E-1
2,019250331E1;-1,734310150E0;5,745329857E-1;3,034885406E0
2,029117194E1;-1,221236229E0;-2,777579784E0;9,675326347E-1
2,038984375E1;-9,988307953E-2;3,240291119E0;1,989510536E0
2,048854811E1;-3,066815376E0;4,133425713E0;-5,252542496E-1
2,058723627E1;-1,198093653E0;-1,514877796E0;-2,819447041E0
2,068589588E1;-2,989282608E-1;5,552053452E-1;2,578191280E0
2,078457198E1;1,742971659E0;-4,409078598E0;-7,377326488E-1
2,088318915E1;1,259572983E0;-7,352256775E-2;-1,062124968E0
2,098192626E1;-1,151468515E0;-1,870732307E0;-3,049054146E-1
2,108058331E1;-7,435119152E-1;-6,286416054E-1;1,967953205E0
2,117926601E1;1,573102951E0;-1,779658794E0;-4,864668846E-1
2,127792345E1;-2,066889048E0;-2,743163586E0;1,714534760E-1
2,137656968E1;-1,508809805E0;2,328238010E0;4,235836029E0
2,147528806E1;-1,829422474E0;2,780595303E0;4,780440331E-1
2,157393292E1;-5,753264427E-1;-5,123057365E-1;-1,151105881E0
2,167262125E1;1,324574709E0;2,550069809E0;3,429129124E-1
2,177129793E1;2,902545214E0;-5,872181892E0;-2,836208820E0
2,186992707E1;7,787227631E-1;-3,833951950E-1;3,978738785E-1
2,196865280E1;-8,505892754E-1;3,077106476E-1;-4,639205933E-1
2,206731981E1;1,709547043E-1;-1,314444542E0;-2,057422638E0
2,216601105E1;2,755546570E-1;-8,988156319E-1;1,398868561E-1
2,226463602E1;-2,867393494E0;1,191142321E0;1,524482250E0
2,236329052E1;-1,744722605E0;2,076032162E0;2,815205097E0
2,246202247E1;-3,736257076E0;2,771281719E0;-1,002910614E0
2,256067320E1;-2,157870293E0;6,667118073E-1;1,437330961E0
2,265934870E1;-1,179063559E0;1,658494473E0;2,862101793E0
2,275799303E1;8,137335777E-1;-3,910306931E0;-4,165752411E0
2,285665454E1;2,736371756E0;-7,040733337E0;-3,579826832E0
2,295537852E1;1,599576950E0;8,773803711E-2;-2,463867664E0
2,305405279E1;-1,973103523E0;9,905362129E-1;5,354464054E-1
2,315271658E1;1,098999739E0;-3,075364113E0;-1,447109938E0
2,325138652E1;-9,858691692E-1;4,851274490E-1;2,617695570E0
2,335002638E1;-3,475932121E0;4,247140884E-1;-1,043590546E0
2,344874410E1;-1,517105579E0;-9,054212570E-1;-9,903001785E-2
2,354740562E1;-8,661996126E-1;-1,096112251E0;6,486036777E-1
2,364605714E1;2,954103947E-1;-1,037243843E0;1,442528486E0
2,374472129E1;-4,001949787E0;1,186214447E0;9,262862206E-1
2,384338140E1;-8,017963171E-1;-2,314936638E0;1,975823760E0
2,394210672E1;-1,088165998E0;-1,053693771E0;1,689730287E0
2,404076720E1;1,070999622E0;3,924283981E-1;1,106683850E0
2,413944011E1;-8,278760314E-1;1,066191673E0;2,535726547E0
2,423810858E1;1,145891666E0;-2,806745529E0;-2,534406185E0
2,433674927E1;-1,247478247E0;7,837486267E-1;-6,433343887E-1
2,443546506E1;-8,833128214E-1;8,205060959E-1;5,577883720E-1
2,453412228E1;-1,600192308E0;-1,935778618E0;1,985181570E0
2,463279170E1;-2,324780226E0;-6,111688614E-1;1,448687315E0
2,473145686E1;-1,154081345E0;-4,513177872E-1;1,271432042E0
2,483010823E1;-1,717434168E0;-2,396945953E-1;1,408203840E0
2,492883075E1;-5,479015112E-1;-6,307630539E-1;1,717804432E0
2,502749449E1;-1,636947155E0;-1,505734444E0;1,209035397E0
2,512615183E1;-2,362335920E0;-1,373330116E0;7,278165817E-1
2,522479918E1;-1,965313554E0;-7,861938477E-1;2,018537283E0
2,532347312E1;-3,248292804E-1;-1,028814316E-1;1,656014681E0
2,542219555E1;-2,767272949E0;-2,672386169E-1;1,361039877E0
2,552083578E1;-2,055594921E0;-4,092836380E-1;1,074958801E0
2,561950613E1;-1,328425169E0;-1,129665375E-1;9,848415852E-1
2,571821808E1;-6,954791546E-1;1,356430054E-1;7,213785648E-1
2,581683465E1;2,169648409E0;-1,247007370E0;-1,052968502E0
2,591555906E1;1,934695721E0;5,041475296E-1;8,016972542E-1
2,601419048E1;-9,333293438E-1;4,648685455E-2;6,179573536E-1
2,611289030E1;1,485942006E-1;-1,217454910E0;-1,405127048E0
2,621156623E1;1,331085682E0;5,563888550E-1;2,307600975E-1
2,631019696E1;1,086149693E0;-1,856803894E-1;-4,198789597E-1
2,640892076E1;1,100705981E0;9,316706657E-1;2,529659271E-1
2,650758761E1;3,993919492E-1;9,751124382E-1;-1,492667198E-1
2,660625572E1;1,441990137E-1;2,369117737E-1;-6,727905273E-1
2,670493045E1;2,153019309E-1;-1,133842468E-1;-8,409299850E-1
2,680356453E1;-2,476752102E-1;4,466819763E-2;4,856793880E-1
2,690227966E1;7,334511280E-1;-4,864006042E-1;-4,125332832E-1
2,700095103E1;6,310251355E-1;1,195755005E-1;-3,578672409E-1
2,709961986E1;3,819093704E-1;6,184577942E-3;-4,761624336E-1
2,719830271E1;1,713581681E-1;5,794658661E-1;-1,102113724E-2
2,729692142E1;-4,712124169E-2;3,553562164E-1;9,915232658E-2
2,739565178E1;5,066484809E-1;-2,722873688E-1;2,120501995E-1
2,749430982E1;4,307459593E-1;-3,337936401E-1;2,248129845E-1
2,759297846E1;4,149769545E-1;-3,452968597E-1;-4,138493538E-2
2,769165462E1;-3,202763498E-1;4,683971405E-2;-2,342886925E-1
2,779028752E1;3,526070714E-2;7,838916779E-2;5,677602291E-1
2,788899379E1;1,901974380E-1;-1,164875031E-1;-1,916935444E-1
2,798766432E1;-2,622276545E-2;2,162790298E-1;-8,214879036E-2
2,808634438E1;3,632376790E-1;-1,689529419E-1;-2,783527374E-1
2,818502057E1;3,756110966E-1;1,613931656E-1;-4,826135635E-1
2,828364798E1;-1,379945278E-1;1,230649948E-1;-1,873445511E-1
2,838238630E1;1,418154389E-1;2,510643005E-1;-2,967886925E-1
2,848101587E1;2,837800980E-1;2,048149109E-1;-1,836543083E-1
2,857968911E1;2,053377926E-1;1,350307465E-2;-1,778430939E-1
2,867834603E1;6,520215422E-2;-1,265106201E-1;-2,551541328E-1
2,879346394E1;2,194079608E-1;9,634494781E-2;-1,505308151E-1
2,889218330E1;2,428741753E-1;9,882545471E-2;-1,752610207E-1
2,899079348E1;2,450417131E-1;8,791637421E-2;-3,973960876E-2
2,908950750E1;2,680656612E-1;-3,954219818E-2;1,066148281E-1
2,918818764E1;2,035495639E-1;-5,504322052E-2;-1,634759903E-1
2,928682736E1;2,218240798E-1;-1,127185822E-1;-3,099408150E-1
2,938552247E1;2,884039283E-1;3,732681274E-2;-5,389547348E-2
2,948420409E1;2,438468486E-1;1,379241943E-1;-1,344733238E-1
2,958287730E1;-2,747773752E-2;1,307830811E-1;-1,454210281E-2
2,968155023E1;1,407934427E-1;1,654529572E-1;3,733921051E-2
2,978018634E1;-1,892849207E-1;9,832000732E-2;-8,523941040E-3
2,987888594E1;-1,014608517E-1;3,255939484E-2;-1,284070015E-1
2,997754570E1;-5,375077203E-2;3,636360168E-2;1,132421494E-1
3,007624833E1;5,087893456E-3;4,293470383E-1;-6,478357315E-2
3,017488308E1;7,450512648E-1;-1,566839218E-1;-5,305948257E-1
3,027355132E1;6,209455729E-1;-2,372283936E-1;-4,442315102E-1
3,037224133E1;5,109311342E-1;1,059246063E-1;5,911207199E-2
3,047092925E1;1,198957682E0;4,135665894E-1;1,939334869E-1
3,056958691E1;9,499258995E-1;4,001379013E-1;-4,414582253E-1
3,066827023E1;1,465743661E0;-3,223447800E-1;-5,922145844E-1
3,076691342E1;1,020161748E0;-9,061336517E-2;-7,221112251E-1
3,086561153E1;1,878147840E0;-1,100339890E-1;-2,870759964E-1
3,096426752E1;4,074428678E-1;2,950191498E-2;-7,444248199E-1
3,106295280E1;6,848831773E-1;7,193336487E-1;-7,941408157E-1
3,116163661E1;7,848183811E-2;7,633557320E-1;-2,752223015E-1
3,126027580E1;8,704481125E-1;-1,193494797E-1;-4,887580872E-4
3,135898016E1;-2,237972736E0;-3,530025482E-1;1,228620291E0
3,145766271E1;-8,917912245E-1;1,153639793E0;-5,840263367E-1
3,155632980E1;6,091678143E-1;-1,169806480E0;-9,159030914E-1
3,165499522E1;-8,897641897E-1;7,485179901E-1;1,089334011E0
3,175363596E1;4,954144955E-1;-8,280019760E-1;-8,375906944E-1
3,185232079E1;-4,029684067E-1;-2,278137207E-2;2,466735840E-1
3,195098508E1;3,876550198E-1;-5,616159439E-1;-5,869669914E-1
3,204969280E1;1,481333971E0;8,919191360E-1;-3,283424377E-1
3,214834573E1;3,197466135E0;5,302524567E-1;-1,499589443E0
3,224699974E1;1,659171581E0;2,036184311E0;-1,512762070E0
3,234571148E1;9,767470360E-1;3,828263283E-1;-3,772892952E-1
3,244437692E1;2,050665855E0;1,644532681E0;1,291799545E-1
3,254305383E1;1,621611118E0;-1,753821373E-1;1,794381142E-1
3,264173313E1;-3,015525341E-1;4,837632179E-1;1,064805984E0
3,274035722E1;6,634120941E-1;-9,508414268E-1;3,593153954E-1
3,283906807E1;7,389655113E-1;-7,063903809E-1;-3,177647591E-1
3,293774848E1;-1,525080681E0;8,071177006E-1;1,846898079E0
3,303641203E1;-9,339647293E-1;6,478490829E-1;-8,651895523E-1
3,313506793E1;-7,158575058E-1;3,206157684E0;5,888137817E-1
3,323372280E1;1,003180981E0;2,045372486E0;-1,371345997E0
3,333247306E1;2,046413422E0;8,991603851E-1;3,478217125E-1
3,343110113E1;4,394023895E0;-2,940056801E0;-2,207301617E0
3,352976118E1;7,383565903E-1;3,831068993E0;-1,715946674E0
3,362844418E1;1,081694603E0;-1,999849319E0;-2,485027313E-1
3,372708255E1;9,519252777E-1;-1,757498741E0;8,069760799E-1
3,382577493E1;3,278901577E0;8,470344543E-2;3,906986713E-1
3,392446626E1;2,544842243E0;-2,356352806E-1;-6,875848770E-1
3,402312111E1;1,488055706E0;-4,294319153E-1;1,158404350E0
3,412180688E1;-1,134993076E0;5,812940598E-1;2,887826204E0
3,422044452E1;2,539927006E0;-1,138367176E0;7,126641273E-1
3,431914456E1;-2,710760355E0;1,959112644E0;-1,372861862E-2
3,441783480E1;-2,253762960E0;1,943098068E0;1,804456711E-1
3,451649616E1;9,881496429E-3;2,247419834E0;-1,666224718E0
3,461516884E1;1,227647543E0;-9,821510315E-1;-3,232374191E-1
3,471381111E1;2,214305878E0;-2,193786621E0;-2,671400785E0
3,481251671E1;1,038597584E0;-3,875217438E-1;-1,111205101E0
3,491118933E1;3,590917110E0;-1,010372162E0;5,605697632E-2
3,500985141E1;3,659982681E-1;-5,111784935E-1;1,136537075E0
3,510850952E1;-1,176143646E0;-9,384055138E-1;2,476603985E0
3,520716870E1;-2,498913288E0;-1,382563591E0;1,958207130E0
3,530589100E1;-3,329917669E0;5,222534180E0;1,152457237E0
3,540454350E1;1,312212944E-1;7,058248520E-1;-8,396687508E-1
3,550320441E1;2,453000546E0;-5,711421967E-1;-1,569116592E0
3,560187725E1;2,555628300E0;-3,348414421E0;-4,571471214E0
3,570052662E1;-9,274938107E-1;-1,023077011E0;-7,199139595E-1
3,579923569E1;2,199175835E0;-2,980565071E0;1,233613491E0
3,589789308E1;1,705835819E0;-3,283917427E0;1,187289476E0
3,599658308E1;-9,710636139E-1;-1,317168713E0;2,750507593E0
3,609525302E1;-1,842027903E0;9,013364315E-1;4,484572411E-1
3,619389476E1;-4,514680386E0;1,743705511E0;2,735875845E0
3,629256314E1;3,460907936E-1;2,900114059E-1;-3,408088684E-1
3,639126897E1;-4,003572464E-1;2,774912357E0;-2,818908691E0
3,648992820E1;3,389917612E0;1,912745476E0;1,268069506E0
3,658857309E1;4,271473885E0;-2,518656731E0;1,460258961E-1
3,668724203E1;-3,451285362E-1;5,890154839E-1;-2,306764126E-1
3,678595859E1;-2,413663864E-1;1,493666172E0;-1,030869961E0
3,688462462E1;2,738976479E-1;-1,400620461E0;-9,128494263E-1
3,698330300E1;-2,313506842E0;-1,731606483E0;1,796736240E0
3,708198034E1;-1,971882820E0;2,359478474E-1;3,174321651E0
3,718061678E1;-9,281392097E-1;1,855422020E0;1,025832653E0
3,727932229E1;7,931914330E-1;9,309840202E-1;6,127617359E-1
3,737799180E1;9,385516644E-1;-1,193917274E0;-1,014490128E-1
3,747664799E1;1,341773033E0;-7,490777969E-1;-2,350553989E0
3,757534910E1;8,303084373E-1;-1,026376724E0;-1,088707447E0
3,767397332E1;1,045095444E0;-9,138679504E-1;1,134106636E0
3,777266724E1;-9,908714294E-1;-4,790968895E-1;3,761391640E-1
3,787135194E1;8,218479156E-2;-1,196102619E0;2,252365589E0
3,797005589E1;-2,463937044E0;2,723572254E-1;1,984249115E0
3,806870379E1;-3,578155279E0;2,135535002E0;1,463465691E0
3,816733593E1;8,097801208E-1;3,303971291E-1;2,436203957E-1
3,826602098E1;5,457358360E-1;2,390678406E0;1,750978470E0
3,836469032E1;3,003829241E0;-5,492419243E0;-2,616621733E0
3,846335246E1;2,572461367E0;-1,679157257E0;-5,697016716E-1
3,856205755E1;-1,158108473E0;1,000995159E0;9,357328415E-1
3,866069618E1;1,979616165E0;-3,786199093E0;-1,662607431E0
3,875941045E1;2,724347115E0;-3,290446281E0;-7,538414001E-2
3,885805846E1;-1,751088858E0;-1,397199631E-1;3,159713745E0
3,895675512E1;-1,556221008E0;9,079596996E-1;2,054628849E0
3,905540320E1;-1,848271370E0;-2,166640282E0;2,132070541E0
3,915405763E1;-1,005266666E0;-1,609716415E-1;8,241224289E-1
3,925272582E1;1,369384289E0;6,401200294E-1;-1,042269230E0
3,935143590E1;1,582434893E0;-3,371400833E-1;-5,940937996E-2
3,945006495E1;8,511199951E-1;1,034584045E0;-9,488046169E-1
3,954877568E1;1,972775459E0;-1,523225784E0;-2,128180742E0
3,964741762E1;-9,818935394E-2;-2,694656849E0;1,106637001E0
3,974612334E1;-1,253447533E-1;-4,131083488E-1;2,039301395E0
3,984478074E1;6,095395088E-1;-1,192891598E0;1,083932400E0
3,994346923E1;-9,906778336E-1;-1,615551949E0;2,766265869E-1
4,004214288E1;-3,631722450E0;1,403847694E0;4,161195278E0
4,014077642E1;-1,767614603E0;2,274096489E0;1,116514206E0
4,023944934E1;6,965155602E-1;-3,783044815E-1;1,322952747E0
4,033813834E1;1,172095299E0;8,164958954E-1;6,386854649E-1
4,043686552E1;2,345869541E0;-9,658975601E-1;-6,112496853E-1
4,053550106E1;2,592894793E0;-3,415660858E-1;-3,720632792E0
4,063413966E1;1,490565300E0;-2,958496571E0;4,661982059E-1
4,073283039E1;9,525794983E-1;-1,085852623E0;-7,026767731E-2
4,083151940E1;6,963200569E-1;-8,045153618E-1;9,079957008E-1
4,093019351E1;-1,942591906E0;6,135704517E-1;9,829244614E-1
4,102884623E1;-1,581569195E0;5,818455219E-1;1,483716965E0
4,112750017E1;-2,024623394E0;3,489912510E0;1,339224815E0
4,122620113E1;-7,323026657E-2;-3,697681427E-1;-6,487314701E-1
4,132487748E1;2,616158009E0;-6,170746803E0;-2,247529745E0
4,142351655E1;2,330191612E0;-6,489236832E0;-6,358937263E0
4,152220105E1;-1,336840391E0;-2,031289101E0;2,420310497E0
4,162086048E1;-1,234083176E0;1,193350315E0;1,214858532E0
4,171955156E1;1,781592369E-1;-3,685922146E0;-5,699558258E-1
4,181823768E1;-2,358305454E0;-4,892106056E-1;4,380434990E0
4,191689217E1;-4,776033878E0;4,152567863E0;5,609786034E0
4,201556774E1;-1,877982616E0;3,664015532E0;1,030411243E0
4,211422113E1;1,064282417E0;-1,111664772E-1;-2,080397606E-1
4,221288637E1;1,171877861E0;1,573081017E0;3,054296970E-1
4,231160173E1;3,279919386E0;-2,806119919E0;-2,897188663E-1
4,241027089E1;2,367032051E0;-2,684374809E0;-5,622172356E-1
4,250895571E1;-1,807521105E0;-3,197259903E-1;2,577424526E0
4,260757925E1;-2,578845263E0;1,847581863E0;2,477718353E0
4,270628784E1;3,839604378E0;-3,981215954E0;-1,311882019E0
4,280494777E1;-6,503329277E-1;-2,476194382E0;2,115533352E0
4,290363201E1;-1,802576542E0;5,453760624E0;1,076573849E0
4,300228462E1;-2,206717968E0;2,628556728E0;-5,753164291E-1
4,310094215E1;-9,366765022E-1;-8,433156013E-1;8,243989944E-1
4,319964964E1;-1,739358187E0;2,554903030E0;4,277374744E0
4,329832698E1;1,300212860E0;-5,005865097E-1;2,005701780E0
4,339698876E1;2,903662682E0;-4,296207428E0;-4,669344902E0
4,349565960E1;1,523267984E0;-1,494285583E0;-1,606564045E0
4,359430207E1;1,001895189E0;-2,726706505E0;1,617486000E0
4,369300755E1;-6,202850342E-1;1,085389614E0;8,300566673E-1
4,379168033E1;1,735444546E0;-3,084116459E0;-3,118743896E-1
4,389035196E1;2,694327831E0;-1,809889793E0;3,478765488E-2
4,398899323E1;-5,575982094E0;1,675264120E0;3,445049524E0
4,408766517E1;5,394411087E-2;3,539395332E-2;9,170103073E-1
4,418635205E1;-4,751973152E-1;2,515416145E0;3,500905037E-1
4,428502386E1;2,323626518E0;6,408231735E0;-1,399249554E0
4,438371509E1;8,495351791E0;-9,188081741E0;-2,631936550E0
4,448238421E1;-3,145568371E-1;5,664994240E0;4,175997734E0
4,458101058E1;5,306701660E-1;-1,359815598E-1;4,642782211E0
4,467969788E1;4,433255196E-1;-3,740284920E0;1,246292114E0
4,477842631E1;-1,280261040E0;2,195006371E0;1,494927287E0
4,487705737E1;4,399042130E0;-3,820851803E0;-4,507718086E0
4,497571677E1;2,456907749E0;-1,004192829E0;1,920561790E-1
4,507438426E1;-2,258066177E0;1,942079782E0;1,193056583E0
4,517308876E1;-3,193351746E0;2,322054625E0;3,548349142E0
4,527176586E1;-4,271272659E0;2,922850132E0;-6,941223145E-2
4,537043124E1;-1,949470520E0;1,774719238E0;-2,996187210E-1
4,546910708E1;9,603776932E-1;2,359454155E0;8,525474072E-1
4,556774400E1;4,550151825E0;-4,929754257E0;-2,118498802E0
4,566644090E1;2,760582209E0;-1,181170464E0;9,604349136E-1
4,576512242E1;2,396527529E0;3,363458157E0;-3,566392422E0
4,586377907E1;3,018787861E0;-5,409360886E0;-2,591298819E0
4,596246981E1;-1,660425425E0;2,933733940E0;4,662444115E0
4,606109462E1;9,387588501E-1;-6,848352432E0;3,233842850E-1
4,615980386E1;-4,317208290E0;1,488910675E0;6,269853115E0
4,625848893E1;-4,035816193E-1;-4,842104912E0;2,459991455E0
4,635714230E1;-5,292121410E0;-3,561314106E0;1,894330025E0
4,645581543E1;-2,356479168E0;3,232995749E0;3,317238569E0
4,655446549E1;-2,294774532E0;2,293936729E0;1,468386173E0
4,665316684E1;5,344252586E-1;-5,912289619E0;4,022688866E-1
4,675184625E1;1,382354736E0;2,588690281E0;3,039985657E0
4,685051271E1;1,800547838E0;-2,678138733E0;-5,734415054E-1
4,694921037E1;-1,252388954E0;5,576248169E-1;1,481773853E-1
4,704782823E1;2,396445274E-1;-1,595858097E0;2,865114450E0
4,714654438E1;1,454863548E-1;-1,244092941E0;-2,227010727E-1
4,724519016E1;5,379986763E-1;-1,950335503E-1;-1,054314613E0
4,734387702E1;-2,599916935E0;-4,302342415E0;1,070423126E0
4,744255398E1;-3,539823055E0;3,508780956E0;6,933730125E0
4,754118775E1;4,715919495E-4;2,698497772E-1;-1,561131477E0
4,763989501E1;-1,410376549E0;2,017660618E0;1,454078913E0
4,773856194E1;9,359216690E-2;-3,502925873E0;-4,137503624E0
4,783720459E1;2,867294550E0;-1,254427910E0;-1,472758055E0
4,793587171E1;3,581332207E0;-2,487821579E0;2,523133755E0
4,803454968E1;5,786838531E-1;-3,573737144E-1;-5,871522427E-1
4,813327986E1;7,489633560E-1;-3,141282082E0;9,261147976E-1
4,823191052E1;1,360423088E0;-2,320549488E0;-1,673348904E0
4,833059892E1;-5,928201675E-1;-1,817142487E0;2,319324970E0
4,842929408E1;-3,501917839E0;5,020398140E0;2,280154228E-1
4,852791057E1;-4,012651920E0;5,863826275E-1;-1,484102726E0
4,862661264E1;-3,227725744E0;1,954274893E0;3,432798386E-1
4,872528904E1;-2,088305950E0;-1,530499458E-1;-7,809262276E-1
4,882394593E1;1,076938152E0;-2,491531372E0;-4,437152386E0
4,892264032E1;4,820103645E0;5,543231964E-1;-1,787119150E0
4,902127229E1;-1,352289200E0;-8,991556168E-1;-1,035831213E0
4,911999086E1;9,306781769E0;-7,055086136E0;-2,903807640E0
4,921864782E1;1,458123207E0;-4,538273811E-1;-5,466175079E-2
4,931737675E1;1,438451290E0;-2,913887501E0;-4,218001366E-1
4,941597268E1;-1,924739361E0;-1,696320534E0;2,017635822E0
4,951463260E1;-2,381014585E0;-8,581583500E-1;3,672068834E0
4,961334474E1;-6,214569092E0;3,457203388E0;1,775981188E0
4,971201682E1;-4,161262512E-2;-3,094339848E0;1,461439133E-1
4,981067038E1;7,919845581E-1;-2,204392910E0;-1,330510855E0
4,990932975E1;7,333841324E-1;2,988445759E0;-4,516653061E0
5,000799614E1;6,548671722E-1;-1,892419815E0;-1,681701899E0
5,010670179E1;-5,200176239E-1;-7,322292328E-1;-1,041158915E0
5,020533019E1;-8,860070705E-1;1,837582111E0;9,440717697E-1
5,030401615E1;1,860044003E0;-2,760915279E0;-1,054818153E0
5,040269935E1;1,664475441E0;-2,755837440E0;3,456735611E-2
5,050135786E1;-1,530395985E0;-2,157687187E0;1,622051239E0
5,060006038E1;1,582683086E0;3,876886368E-1;1,287929058E0
5,069873883E1;-3,126955032E0;4,111256599E-1;1,668298721E0
5,079736753E1;2,918078423E0;4,269652367E-1;-1,137332916E-1
5,089605882E1;4,320435524E-1;-1,070944786E0;-7,893562317E-1
5,099472041E1;5,133626938E0;-1,495973587E0;3,759293556E-1
5,109341774E1;3,466347933E0;-1,523940086E0;2,001756191E0
5,119209345E1;-3,798565865E-1;5,895819664E-1;-7,203507423E-2
5,129077028E1;2,319919586E0;-3,248383045E0;5,982434750E-1
5,138945313E1;1,760663986E-1;-1,312435150E0;1,036322355E0
5,148807138E1;8,622498512E-1;-2,821646214E0;7,860326767E-1
5,158678309E1;-2,773246765E0;-1,660466671E0;2,222250462E0
5,168544558E1;-1,015659332E0;2,541971207E-2;-1,422100544E0
5,178412105E1;-2,576291084E0;-2,865227222E0;5,752687454E-1
5,188280570E1;-6,876647949E0;4,173769474E0;3,504852057E0
5,198144404E1;6,533004284E0;2,369791031E0;5,260028839E-1
5,208015841E1;7,676839828E0;-7,414487839E0;-6,457715034E0
5,217882476E1;-6,675005913E0;9,612557411E0;1,424740434E0
5,227749906E1;4,074435234E0;-2,706762314E0;-5,636511803E0
5,237615315E1;-2,445664406E0;-4,796028137E-3;-2,444455385E0
5,247480613E1;-3,977951527E0;-1,527019978E0;-6,160111427E-1
5,257349744E1;-2,364785194E0;-8,732676506E-1;3,504631519E-1
5,267218489E1;2,651786804E-2;-8,321189880E-1;-4,562454224E-1
5,277085702E1;-6,750343323E0;3,159075499E0;1,199940920E0
5,286952573E1;-3,571905375E0;-1,705789566E0;-5,792045593E-2
5,296816716E1;-1,337326527E0;-4,955389023E0;-3,445174694E0
5,306687570E1;2,587237835E0;3,965682983E-1;-6,862902641E-1
5,316554760E1;-2,162762165E0;2,098182201E0;9,198706150E-1
5,326420134E1;-3,377199173E-2;-3,802084923E-1;-1,301921844E0
5,336289210E1;-1,389267445E0;9,554014206E-1;7,049098015E-1
5,346153032E1;-3,361926079E-1;-3,322777748E-1;-6,347947121E-1
5,356023981E1;2,459711075E0;-1,158284187E0;-1,912670135E-1
5,365891563E1;-3,621807098E-1;1,210200787E0;3,800392151E-1
5,375757029E1;1,878216267E0;-4,702752113E0;-2,250595093E-1
5,385624212E1;-2,793605566E0;4,989313126E0;3,051034927E0
5,395489282E1;5,543186665E0;-3,748072147E0;-3,090022564E0
5,405359454E1;-2,112240791E0;-2,215705395E0;9,320359230E-1
5,415224981E1;-2,022418499E0;2,421592712E0;6,470103264E-1
5,425092084E1;-1,113822937E0;-1,990905762E0;3,431248665E-1
5,434959365E1;-9,190955162E-1;-1,558693886E0;-7,425642014E-2
5,444825493E1;-1,023318768E0;-3,912830353E-1;-6,229066849E-1
5,454695897E1;4,421420097E0;-2,900697231E0;-2,818379402E0
5,464563293E1;-1,156064987E0;3,706202507E-1;9,730982780E-1
5,474430645E1;-2,159331083E0;-7,076430321E-1;9,518666267E-1
5,484297174E1;-3,472446442E0;2,976023436E0;9,945840836E-1
5,494161735E1;1,180541515E0;-2,222641945E0;-8,176121712E-1
5,504032180E1;4,341917038E-1;-7,198748589E-1;-6,027112007E-1
5,513899514E1;-4,918694496E-1;-1,367253780E0;-2,220973969E-1
5,523769781E1;7,439947128E-1;6,125087738E-1;-1,260304451E-1
5,533634021E1;-1,188694954E0;8,513174057E-1;9,672155380E-1
5,543497627E1;-2,343187332E-1;-3,940372467E-1;-7,675442696E-1
5,553368902E1;-1,441143513E0;1,095551491E0;8,176136017E-1
5,563234717E1;-6,154789925E-1;-1,188820362E0;-5,968971252E-1
5,573103595E1;-9,981479645E-1;-9,572219849E-2;-1,046185017E0
5,582970857E1;-3,394766331E0;1,113572836E0;7,848014832E-1
5,592833900E1;2,310008049E0;-1,993466854E0;-1,714028835E0
5,602705300E1;-9,977436066E-2;1,536475182E0;-2,757883072E-1
5,612573328E1;-2,913894176E0;3,239845276E0;-1,081552505E0
5,622439488E1;1,456759930E0;-7,320174217E0;-8,405666351E0
5,632304780E1;-4,799417496E0;-2,795409679E0;-3,080440044E0
5,642170201E1;-2,661604166E0;-1,055364609E-1;-2,947109699E0
5,652039530E1;3,946407795E0;8,325139999E0;-4,795457840E0
5,661905777E1;5,177892685E0;-1,202058792E-2;-2,491961718E0
5,671776043E1;-5,818715572E0;-1,586226463E0;-1,131871223E0
5,681641055E1;-2,386414051E0;3,391327858E0;-1,446695328E-1
5,691506621E1;-5,248445511E0;-8,587398529E-1;3,129949570E-1
5,701377112E1;-2,611245155E0;2,315540552E0;2,203059196E-2
5,711244943E1;-3,717560768E-1;-4,663352966E-1;-2,120518684E-2
5,721111345E1;3,897619247E-1;-2,927260876E0;-4,658740044E0
5,730977000E1;1,100892544E0;8,343656540E0;-8,176053762E-1
5,740842980E1;3,069961071E0;-2,635440826E0;-2,740129471E0
5,750713871E1;5,688821793E0;-8,416338921E0;-3,844634533E0
5,760579124E1;-2,198920250E0;3,643014431E0;2,629375458E-2
5,770447877E1;1,484586239E0;-1,111324787E0;-7,983238697E-1
5,780315063E1;1,621786118E0;-1,732490063E0;1,130692959E-1
5,790179313E1;-7,284250259E-1;-3,226523399E-1;4,413421154E-1
5,800049493E1;-1,005069733E0;7,517385483E-2;9,018588066E-1
5,809916845E1;8,105049133E-1;-2,437807322E0;2,489981651E-1
5,819783560E1;-3,429443121E0;1,598397970E0;1,199994564E0
5,829654107E1;-7,743768692E-1;2,633668900E0;1,713500977E0
5,839515002E1;7,557306290E-1;4,948191643E-1;-1,304146051E0
5,849386438E1;3,490486145E-1;-7,380266190E-1;-2,212934732E0
5,859251554E1;1,150615215E0;-9,734058380E-2;-1,005767107E0
5,869120256E1;1,265163660E0;-1,667661667E0;-1,537636995E0
5,878986940E1;1,376145363E0;-1,806995392E0;-8,318321705E-1
5,888851405E1;1,648851395E0;-2,226800919E-1;9,065980911E-1
5,898721871E1;-7,713627815E-1;6,728987694E-1;5,950894356E-1
5,908590051E1;8,765935898E-2;-2,645359039E-1;1,682435274E0
5,918456452E1;-2,571635246E-1;-1,838191032E0;1,067427635E0
5,928323406E1;-3,447569609E0;1,025735378E0;2,748882294E0
5,938187583E1;-3,901286125E-1;2,011371374E0;1,054204941E0
5,948057653E1;-2,868175507E-1;5,521464348E-1;1,020789146E-1
5,957925040E1;6,545372009E-1;-9,928979874E-1;5,454266071E-1
5,967792436E1;2,007448673E0;-1,617742538E0;-7,594470978E-1
5,977659845E1;2,927099943E0;-1,888078690E0;1,567864418E-2
5,987523803E1;-1,207382917E0;-1,172362328E0;-9,072632790E-1
5,997394472E1;1,722360611E0;-1,337405205E0;8,006460667E-1
6,007258147E1;-5,378251076E-1;-2,067677975E0;8,728289604E-1
6,017122812E1;5,400753021E-1;-1,254861832E0;2,242067337E0
6,026992574E1;-3,452883720E0;3,035159111E-1;2,433619976E0
6,036860038E1;-2,089201927E0;2,499853134E0;1,234210014E0
6,046728769E1;-3,031034470E-1;1,718546152E0;4,958343506E-1
6,056595625E1;-8,021926880E-2;7,273387909E-2;7,395951748E-1
6,066469365E1;1,361053705E0;-1,437207222E0;9,543561935E-2
6,076330146E1;4,566069603E0;-2,682108879E0;1,132661819E0
6,086196113E1;2,072171450E0;-8,825860023E-1;1,405685186E0
6,096066655E1;2,004032135E0;-2,262952328E0;1,480365753E0
6,105932026E1;1,094096661E0;-2,387704372E0;2,475533485E0
6,115802686E1;1,893258095E-1;-2,106498957E0;2,914787769E0
6,125669465E1;-2,214160204E0;-2,841234207E-3;4,027913570E0
6,135532091E1;-6,046519279E-1;1,734059572E0;2,656384706E0
6,145405904E1;5,777969360E-1;-1,036727905E0;1,641203403E0
6,155270089E1;3,408759356E0;-3,937201977E0;3,824734688E-1
6,165137112E1;3,821348190E0;-1,888240814E0;-1,006771088E0
6,175003952E1;4,511699677E0;-3,227481842E-1;9,071052074E-1
6,184868401E1;2,616971493E0;-3,244446278E0;1,729525566E0
6,194738911E1;3,252382278E0;-3,254159927E0;3,233219385E0
6,204606717E1;1,161930084E0;-8,791258335E-1;4,364720345E0
6,214472781E1;-9,056460857E-1;-5,411827564E-1;2,830631256E0
6,224342419E1;-1,169370174E0;9,024977684E-1;4,750042915E0
6,234204563E1;1,394899845E0;6,334857941E-1;5,440378189E-1
6,244075129E1;5,606079578E0;-7,913492203E0;-5,902848244E-1
6,253939991E1;5,062174797E0;-2,691313267E0;1,184088230E0
6,263810086E1;7,314165115E0;-5,489592075E0;2,228641510E-2
6,273676917E1;-4,821701050E-1;-1,930539131E0;3,927413940E0
6,283541081E1;2,301877022E0;-1,789887428E0;2,873437881E0
6,293408881E1;1,804918766E0;-2,683208227E0;3,250105381E0
6,303278244E1;-3,235556126E0;1,029954910E0;5,413796425E0
6,313146058E1;1,714646339E0;6,387929916E-1;2,084573746E0
6,323015090E1;4,437623024E-1;6,789684296E-2;2,460080147E0
6,332876871E1;4,309205055E0;-5,005193233E0;8,370244503E-1
6,342747450E1;3,900277376E0;-1,006949425E0;-2,393764019E0
6,352613458E1;8,472895622E-1;-2,618488789E0;1,065301895E-1
6,362478771E1;2,225560665E0;-1,253601074E0;1,738378286E0
6,372346869E1;7,746057510E-1;-1,026446819E0;1,415749073E0
6,382213449E1;-2,350636005E0;-1,419150591E0;2,820706367E0
6,392083213E1;-2,443288803E0;-4,534792900E-2;3,049859762E0
6,401951253E1;-3,412477255E0;3,035952806E0;3,228368759E-1
6,411819037E1;3,619055748E-1;7,950305939E-2;9,514951706E-2
6,421685767E1;3,365492344E0;-1,692363739E0;-1,876674175E0
6,431549236E1;2,275114298E0;-5,408506393E-1;-1,641616821E0
6,441419789E1;1,097365856E0;-1,594649315E0;-6,589884758E-1
6,451287018E1;2,814823151E0;-8,681383133E-1;1,463253736E0
6,461154590E1;-1,189503670E-1;-7,240767479E-1;5,074083805E-1
6,471021659E1;-8,611502647E-1;-1,789105415E0;2,406655312E0
6,480885412E1;-7,101606369E0;7,860763073E-1;1,896023750E0
6,490755179E1;-3,468728065E-1;1,399858475E0;-1,377468109E-1
6,500626399E1;-6,651582718E-1;1,270651340E0;-7,968773842E-1
6,510487686E1;1,982719421E0;-3,295130730E0;-1,573260546E0
6,520356764E1;1,738982916E0;-8,117313385E-1;-2,218694925E0
6,530221580E1;2,445644379E0;-7,906961441E-1;8,266584873E-1
6,540092129E1;8,873505592E-1;-1,551798344E0;9,106905460E-1
6,549959019E1;-3,577299118E-1;-9,858851433E-1;1,330249071E0
6,559825813E1;-1,984839439E-1;-1,206554890E0;2,591092348E0
6,569691521E1;-4,074673653E-1;4,776127338E-1;3,861532927E0
6,579557761E1;-2,945507526E0;2,505148649E0;2,221726418E0
6,589428267E1;6,370534897E-1;1,715034962E0;6,170463562E-2
6,599293758E1;2,043415070E0;3,852582455E0;8,335387707E-1
6,609163613E1;4,486504555E0;-8,080482483E-3;4,300940037E0
6,619030435E1;1,016464233E-1;2,843327045E0;1,883058190E0
6,628893927E1;-2,263027430E0;9,661459923E-1;3,958378315E0
6,638764353E1;5,290624142E0;-1,204225636E1;-2,861743927E0
6,648633778E1;-1,406766415E0;2,455739975E-1;5,827200413E0
6,658498972E1;5,355568409E0;-6,529512882E0;-2,588436127E0
6,668365051E1;-1,136166954E1;1,221386623E1;3,586019516E0
6,678230147E1;1,460650921E0;6,592035294E-2;2,006359100E0
6,688098856E1;3,003314018E0;-3,500927925E0;3,552318096E0
6,697968424E1;1,960868359E0;-2,184184074E0;-2,547307968E0
6,707832742E1;1,871129990E0;-1,109580994E-1;2,010310411E0
6,717702380E1;-1,374043465E0;2,209911346E-1;-1,085050344E0
6,727565400E1;7,527785301E-1;-1,633694649E0;-1,906327724E0
6,737436775E1;-5,861692429E-1;-2,274617672E0;3,319582939E-1
6,747304163E1;-1,406126976E0;-1,620950699E-1;4,124076843E0
6,757167702E1;-3,153400421E-1;1,991317749E0;2,692362070E0
6,767041353E1;-4,441854477E0;4,555412292E0;-4,390688896E0
6,776902399E1;-1,949157238E0;-2,416858673E-1;-7,422308922E-1
6,786771661E1;2,170515537E0;9,222388268E-1;-2,073910236E-1
6,796640172E1;4,665153503E0;-2,490651131E0;-1,606218338E0
6,806507892E1;2,859439850E-1;1,617186069E0;3,660109282E0
6,816373175E1;1,570875168E0;-5,237444401E0;6,960594654E-1
6,826237522E1;2,406225681E0;-3,085487843E0;-9,501066208E-1
6,836109094E1;1,944837570E0;-2,437359333E0;1,619801283E0
6,845975894E1;-3,375380278E0;2,521837234E0;2,968618155E0
6,855841686E1;-1,806179047E0;1,020986319E0;1,871962547E-1
6,865710772E1;-7,066168785E-1;1,355555534E0;2,301311493E-1
6,875574668E1;1,667343140E0;6,582641602E-2;9,387502670E-1
6,885445604E1;2,632708073E0;1,321299553E0;3,022737503E-1
6,895312150E1;3,718433142E0;4,399709702E-1;3,434028625E-1
6,905179625E1;1,462049961E0;-2,378944397E0;4,563212395E-2
6,915049405E1;1,032435417E0;-4,458889961E-1;1,068021297E0
6,924910147E1;-4,135804176E-1;5,738382339E-1;3,741351128E0
6,934781369E1;-2,311949730E-1;-1,700281143E0;-2,568384171E0
6,944648582E1;-1,829852581E0;2,981937408E0;7,909440041E0
6,954518805E1;-1,353078842E0;-9,337944984E-1;2,890734673E-1
6,964383787E1;-5,593916893E0;1,186499596E0;4,562792778E-1
6,974246604E1;1,386373520E0;-1,111351013E0;1,643266320E0
6,984118230E1;1,380213737E0;2,895222187E0;-5,570472717E0
6,993984402E1;-2,830696106E-1;-7,793598175E-1;-2,242399454E0
7,003849952E1;-2,143999815E0;-3,061758995E0;2,604365110E0
7,013717058E1;1,802466869E0;-4,821963310E-1;1,383601308E0
7,023583083E1;8,128290176E-1;-2,714790821E0;-1,310416222E0
7,033453935E1;-2,056032181E0;-1,780657291E0;3,870018721E0
7,043320297E1;8,556413651E-1;-3,512392998E0;1,109092236E0
7,053187852E1;4,490709305E-2;5,357329845E0;4,723981857E0
7,063052530E1;-8,482537270E-1;2,943025112E0;4,668161869E-1
7,072919438E1;-1,672554016E-1;4,021120071E-1;4,394912720E-1
7,082790175E1;1,382791996E-1;-1,638003349E0;-2,972267151E0
7,092656673E1;5,676870346E0;-9,321861267E-1;7,049520016E-1
7,102524224E1;5,044107437E-1;-1,521581650E0;-2,141923904E0
7,112390007E1;1,107684612E0;-1,904158592E0;-7,238318920E-1
7,122255362E1;-2,531534672E0;-1,956000328E-1;2,484208584E0
7,132125837E1;8,411121368E-1;-1,986441612E0;9,482493401E-1
7,141991588E1;-6,037719250E0;3,122992039E0;-3,860335350E-1
7,151861084E1;-5,959382057E-1;-9,807529449E-1;1,524871349E0
7,161726419E1;5,066599846E-1;3,003182411E-1;2,128760815E0
7,171591408E1;1,738844872E0;1,539572239E0;-2,107063532E0
7,181461639E1;2,093173504E0;2,758872986E0;-1,188517809E0
7,191328928E1;5,619209766E0;-4,897007942E0;-4,772891045E0
7,201196469E1;-2,859739065E0;-1,609168053E-1;1,994391084E0
7,211061776E1;2,629317284E0;-1,553512573E0;-3,411271572E-1
7,220927390E1;4,209579468E0;-3,640092373E0;1,097177029E0
7,230798222E1;-1,129300117E0;-9,060578346E-1;2,822895050E-1
7,240665292E1;-5,109893799E0;1,278469563E0;2,967230797E0
7,250531523E1;1,097206593E0;3,346060276E0;1,724021912E0
7,260400142E1;-3,165010929E0;4,448390007E-1;7,569487095E-1
7,270263710E1;3,638091564E0;-4,746436119E0;-2,871172190E0
7,280133497E1;3,747067451E0;7,734966278E-2;3,789854050E0
7,290004338E1;1,318033218E0;-2,812373161E0;-1,114928961E0
7,299869021E1;-3,192955971E0;2,484555244E-1;2,199029446E0
7,309735867E1;4,024344444E0;-2,470513344E0;-2,056631804E0
7,319599984E1;1,982742786E0;-5,648708344E-2;1,511833906E0
7,329467043E1;-8,506563187E0;-2,176073074E0;2,670260668E0
7,339335391E1;-6,268040180E0;2,757544518E0;3,853764534E-1
7,349208438E1;-3,367681980E0;2,502422571E0;-2,199735403E0
7,359071238E1;9,353728294E-1;-2,944898129E0;-3,149689913E0
7,368936129E1;2,670688152E0;-1,103620529E0;-2,300212383E-1
7,378806006E1;1,757734776E0;-1,591779709E0;-7,863740921E-1
7,388674705E1;3,071012497E-1;1,547956467E-1;-5,681295395E-1
7,398539250E1;4,792012691E0;-4,789460182E0;-1,529269457E0
7,408408485E1;-4,617246628E0;3,106729507E0;3,445904732E0
7,418271937E1;2,691353798E0;-4,197973251E0;-6,011132717E0
7,428142480E1;-7,801573753E0;1,814814568E0;6,210976124E0
7,438009673E1;-4,394822121E0;2,655744076E0;-1,374865055E0
7,447876545E1;2,153375626E0;2,517266273E-1;-5,517365932E-1
7,457742830E1;7,207632065E-2;1,774505615E0;2,052206993E-1
7,467607999E1;1,307271242E0;9,100317955E-1;-1,374670029E0
7,477476924E1;1,258287430E-1;9,411883354E-1;-6,395699978E-1
7,487347429E1;2,841758728E-1;-3,114700317E-3;2,696303844E0
7,497212526E1;3,352807522E0;-1,819959641E0;1,146209359E0
7,507079257E1;1,029124260E0;-9,750380516E-1;1,505494118E0
7,516942926E1;-2,211692333E0;-9,437532425E-1;2,492094994E0
7,526813022E1;-3,038114071E0;1,398665190E0;8,533921242E-1
7,536678913E1;-2,078174591E0;3,365587711E0;2,255459785E0
7,546548990E1;1,520290375E0;1,420314789E0;3,501856327E-1
7,556415214E1;-1,561231375E0;1,039891243E0;3,641104698E-1
7,566279963E1;2,929579496E0;-2,216102600E0;-1,201964736E0
7,576149362E1;5,071191788E-1;2,354491234E0;9,774724245E-1
7,586018826E1;-5,891032219E-1;7,093400955E-1;2,108335495E-2
7,595884775E1;1,743165016E0;-2,653000355E0;-1,291661024E0
7,605752237E1;1,192244530E0;-7,447867393E-1;3,008008003E-2
7,615616060E1;2,321337700E0;-4,197211266E0;2,051024437E-1
7,625486933E1;-7,817349911E0;3,784829617E0;3,335031271E0
7,632883813E1;-4,025636196E0;5,862085819E0;-2,831830978E-1
7,641106250E1;1,580634117E-1;1,884429455E0;-9,236423969E-1
7,651106250E1;0,000000000E0;0,000000000E0;0,000000000E0
7,661106250E1;0,000000000E0;0,000000000E0;0,000000000E0
7,671106250E1;6,669163704E-2;2,309417725E-1;-9,707632065E-1
7,681106250E1;6,669163704E-2;2,309417725E-1;-9,707632065E-1
7,691106250E1;6,669163704E-2;2,309417725E-1;-9,707632065E-1
7,701106250E1;2,932338715E-1;-2,152276516E0;8,854229450E-1
7,711106250E1;1,914194584E0;-3,952113152E0;1,611701965E0
7,721106250E1;1,914194584E0;-3,952113152E0;1,611701965E0
7,731106250E1;1,914194584E0;-3,952113152E0;1,611701965E0
7,741106250E1;8,706803322E-1;9,017491341E-1;-3,174124718E0
7,751106250E1;-7,363133430E-1;7,761259079E-1;1,638658047E0
7,761106250E1;-7,363133430E-1;7,761259079E-1;1,638658047E0
7,771106250E1;2,540223598E0;-1,321289062E0;-1,006155252E0
7,781106250E1;1,286062717E0;-1,023547173E0;5,922448635E-1
7,791106250E1;1,511573792E-1;-1,881203651E-1;-8,979599476E-1
7,801106250E1;9,362192154E-1;-2,643997669E0;2,232892513E-1
7,811106250E1;-2,026996136E0;-1,241240978E0;2,565355062E0
7,821106250E1;-3,687755346E0;-1,168128252E0;3,733035326E0
7,831106250E1;-1,349795341E0;4,700047016E0;3,594295025E0
7,841106250E1;-7,187786102E-1;1,373887539E0;-1,601594210E0
7,851106250E1;-2,640371323E-1;-1,913339138E0;1,762148619E0
7,861106250E1;3,040286064E0;-3,569602966E-2;-2,205347061E0
7,871106250E1;2,832547188E0;-2,052392006E0;-1,685943604E-1
7,881106250E1;-7,515058517E-1;-2,232006073E0;2,299823761E-1
7,891106250E1;9,219751358E-1;-1,978905201E0;2,400588989E-1
7,901106250E1;5,836763382E-1;-6,278614998E-1;2,340788364E0
7,911106250E1;1,993729591E0;-2,076181412E0;1,364598751E0
7,921106250E1;-6,294806480E0;1,620756388E0;2,510189772E0
7,931106250E1;8,388948441E-1;-6,661057472E-1;-3,357331753E-1
7,941106250E1;-1,149903297E0;3,881454468E-3;-2,114653111E0
7,951106250E1;4,362388134E0;-3,105883598E0;-2,191844702E0
7,961106250E1;2,399895191E-1;-9,581375122E-2;-9,037144184E-1
7,971106250E1;2,108368397E0;-9,077262878E-2;1,567084074E0
7,981106250E1;6,493148804E-1;-1,365203857E-1;9,467996359E-1
7,991106250E1;7,704143524E-1;-2,763347626E0;-2,814446449E0
8,001106250E1;-3,824081421E-1;-5,778603554E-1;9,775891304E-1
8,011106250E1;-1,881643295E0;-9,169945717E-1;1,131845713E0
8,021106250E1;-3,196286678E0;2,311208248E-1;1,045734644E0
8,031106250E1;-1,953635216E-1;2,496442080E0;2,437491417E-1
8,041106250E1;-7,103099823E-1;6,223616600E-1;-6,301856041E-1
8,051106250E1;3,222130299E0;-1,823610306E0;-3,037498474E0
8,061106250E1;2,047070026E0;7,045602798E-1;-7,248119116E-1
8,071106250E1;1,862541199E0;9,097380638E-1;-8,002413511E-1
8,081106250E1;1,862541199E0;9,097380638E-1;-8,002413511E-1
8,091106250E1;1,862541199E0;9,097380638E-1;-8,002413511E-1
8,101106250E1;1,862541199E0;9,097380638E-1;-8,002413511E-1
8,111106250E1;1,862541199E0;9,097380638E-1;-8,002413511E-1
8,121106250E1;1,862541199E0;9,097380638E-1;-8,002413511E-1
8,131106250E1;1,862541199E0;9,097380638E-1;-8,002413511E-1
8,141106250E1;1,862541199E0;9,097380638E-1;-8,002413511E-1
8,151106250E1;1,862541199E0;9,097380638E-1;-8,002413511E-1
8,161106250E1;1,862541199E0;9,097380638E-1;-8,002413511E-1
8,171106250E1;1,862541199E0;9,097380638E-1;-8,002413511E-1
8,181106250E1;1,862541199E0;9,097380638E-1;-8,002413511E-1
8,191106250E1;1,862541199E0;9,097380638E-1;-8,002413511E-1
8,201106250E1;1,862541199E0;9,097380638E-1;-8,002413511E-1
8,211106250E1;1,862541199E0;9,097380638E-1;-8,002413511E-1
8,221106250E1;1,862541199E0;9,097380638E-1;-8,002413511E-1
8,231106250E1;1,862541199E0;9,097380638E-1;-8,002413511E-1
8,241106250E1;1,862541199E0;9,097380638E-1;-8,002413511E-1
8,251106250E1;1,862541199E0;9,097380638E-1;-8,002413511E-1
8,261106250E1;-9,948136806E-1;4,385242462E-1;-8,774678707E-1
8,271106250E1;-9,948136806E-1;4,385242462E-1;-8,774678707E-1
8,281106250E1;-9,948136806E-1;4,385242462E-1;-8,774678707E-1
8,291106250E1;-1,095823288E0;4,324088097E-1;-1,223826408E-1
8,301106250E1;-1,631015301E0;-5,041518211E-1;1,867124081E0
8,311106250E1;-1,631015301E0;-5,041518211E-1;1,867124081E0
8,321106250E1;-1,190889835E0;-1,013169289E-1;-4,092488289E-1
8,331106250E1;2,481821060E0;6,236958504E-1;-2,291145086E0
8,341106250E1;1,621632576E0;-3,093332291E0;-6,523970366E-1
8,351106250E1;2,355701923E-1;-1,401322365E0;3,112033606E-1
8,361106250E1;3,735105991E0;8,120632172E-2;-4,229257107E-1
8,371106250E1;2,088790417E0;-3,662947178E0;-7,280683517E-2
8,381106250E1;9,657692909E-1;-1,335612774E0;9,152380228E-1
8,391106250E1;4,798169136E-1;-1,614374161E0;1,514042854E0
8,401106250E1;-1,588465691E0;-1,939754486E0;1,317850113E0
8,411106250E1;-4,054100990E0;2,135941744E0;1,593594074E0
8,421106250E1;-3,311655521E0;4,659879684E0;3,481641293E0
8,431106250E1;-1,897065639E0;-8,092597961E0;-2,175699234E0
8,441106250E1;3,736851692E0;5,528707504E0;-1,360724568E0
8,451106250E1;9,947518349E0;-1,418177319E1;-8,860505104E0
8,461106250E1;9,041543007E-1;1,993310928E0;1,880873084E0
8,471106250E1;1,193616867E0;-3,865146637E-1;2,197248697E0
8,481106250E1;-4,918997288E0;1,226226330E0;1,051024795E0
8,491106250E1;-1,513589859E0;-6,927490234E-1;-6,709275246E-1
8,501106250E1;-2,644946098E0;3,919599295E0;4,380223751E0
8,511106250E1;-6,376096725E0;5,378370762E0;1,528153419E-1
8,521106250E1;-8,872299194E-1;1,519212723E-1;-5,966422558E-1
8,531106250E1;5,147142410E-1;-2,071031094E0;-2,420263290E-1
8,541106250E1;1,920769691E0;-1,436006546E0;2,176696777E0
8,551106250E1;3,859435081E0;1,577960968E0;1,761379480E0
8,561106250E1;1,845455647E0;-1,145199776E0;-4,772179604E0
8,571106250E1;-2,849528074E0;1,495001793E0;2,144578695E-1
8,581106250E1;2,066385269E0;-4,068888664E0;-2,080187321E0
8,591106250E1;-9,889721870E-1;-1,296331406E0;1,844496250E0
8,601106250E1;-5,730995178E0;-3,387560844E-1;2,251578093E0
8,611106250E1;1,085751057E0;-2,101027489E0;7,032463551E-1
8,621106250E1;-3,240456104E0;3,425367594E0;7,403825521E-1
8,631106250E1;4,311739445E0;-5,834436417E0;-2,509439468E0
8,641106250E1;1,015802145E0;-2,228161812E0;-2,772851944E0
8,651106250E1;4,311182976E0;1,148641586E0;-1,650644064E0
8,661106250E1;3,283209801E-1;-1,049500465E0;-6,042308807E-1
8,671106250E1;2,018605232E0;-4,294738770E0;-4,145245552E-1
8,681106250E1;-2,561683178E0;-1,709376812E0;2,026421070E0
8,691106250E1;-2,485930920E0;-1,684520245E0;4,415297508E-1
8,701106250E1;-4,777025223E0;1,548491478E0;-6,512370110E-1
8,711106250E1;-1,398337364E0;4,016559124E0;-1,057825804E0
8,721106250E1;-1,627082825E-1;-4,007368088E-1;-1,346750259E-1
8,731106250E1;3,188002110E0;-1,645884514E0;-9,216673374E-1
8,741106250E1;2,522737741E0;-1,836259842E0;1,268794417E0
8,751106250E1;1,515531063E0;7,391400337E-1;-4,153263569E-2
8,761106250E1;2,281034946E0;-3,080189705E0;-5,254671574E-1
8,771106250E1;1,794990063E0;-2,534765244E0;7,406709194E-1
8,781106250E1;-1,600469112E0;-2,017067432E0;1,558898926E0
8,791106250E1;-1,158872604E0;-2,634905815E0;6,989316940E-1
8,801106250E1;-2,123525620E0;2,069210052E0;4,000197411E0
8,811106250E1;-1,426691532E0;2,070964813E0;1,114551544E0
8,821106250E1;-1,426691532E0;2,070964813E0;1,114551544E0
8,831106250E1;-1,426691532E0;2,070964813E0;1,114551544E0
8,841106250E1;-1,426691532E0;2,070964813E0;1,114551544E0
8,851106250E1;-1,426691532E0;2,070964813E0;1,114551544E0
8,861106250E1;-1,426691532E0;2,070964813E0;1,114551544E0
8,871106250E1;-1,426691532E0;2,070964813E0;1,114551544E0
8,881106250E1;-1,426691532E0;2,070964813E0;1,114551544E0
8,891106250E1;-1,426691532E0;2,070964813E0;1,114551544E0
8,901106250E1;-1,426691532E0;2,070964813E0;1,114551544E0
8,911106250E1;-1,426691532E0;2,070964813E0;1,114551544E0
8,921106250E1;-1,426691532E0;2,070964813E0;1,114551544E0
8,931106250E1;-1,426691532E0;2,070964813E0;1,114551544E0
8,941106250E1;-1,426691532E0;2,070964813E0;1,114551544E0
8,951106250E1;-1,426691532E0;2,070964813E0;1,114551544E0
8,961106250E1;-1,426691532E0;2,070964813E0;1,114551544E0
8,971106250E1;-1,426691532E0;2,070964813E0;1,114551544E0
8,981106250E1;-1,426691532E0;2,070964813E0;1,114551544E0
8,991106250E1;-1,426691532E0;2,070964813E0;1,114551544E0
9,001106250E1;-1,426691532E0;2,070964813E0;1,114551544E0
9,011106250E1;-1,426691532E0;2,070964813E0;1,114551544E0
9,021106250E1;-1,426691532E0;2,070964813E0;1,114551544E0
9,031106250E1;-1,426691532E0;2,070964813E0;1,114551544E0
9,041106250E1;6,042137146E-1;-5,409383774E-2;-1,807055473E-1
9,051106250E1;9,502935410E-2;-1,734903336E0;7,607457638E-1
9,061106250E1;9,502935410E-2;-1,734903336E0;7,607457638E-1
9,071106250E1;4,570104599E0;-2,370288849E0;-4,360640526E0
9,081106250E1;3,217985153E0;-1,683592796E-1;-1,645777702E0
9,091106250E1;-7,469477654E-1;1,222016335E0;-9,676358700E-1
9,101106250E1;-2,752254963E0;1,176283836E0;5,859706402E-1
9,111106250E1;-4,868841171E-2;1,070468426E0;2,266359329E-2
9,121106250E1;-1,453239441E0;-7,194952965E-1;1,116613865E0
9,131106250E1;-3,338632584E-1;-6,975092888E-1;-1,805373907E0
9,141106250E1;4,783979893E0;-8,171241760E0;-1,348975420E0
9,151106250E1;-4,611225128E0;3,769069195E0;3,709422112E0
9,161106250E1;-4,668268204E0;1,116271400E1;2,605901241E0
9,171106250E1;-6,813724041E0;-4,350238800E0;-1,132634163E0
9,181106250E1;-8,752822876E-2;2,128090858E0;2,933092117E-1
9,191106250E1;-2,589431763E0;7,067761421E-1;1,139959574E0
9,201106250E1;-2,407685041E0;1,055475235E0;-3,856697083E-1
9,211106250E1;5,993080139E-1;-1,103574753E0;-3,415426254E0
9,221106250E1;2,708118916E0;-9,327144623E-1;-1,121692657E-1
9,231106250E1;1,076763630E0;-9,099283218E-1;1,965839505E0
9,241106250E1;-1,314846992E0;-1,240365982E0;-1,173347354E0
9,251106250E1;-6,912870407E-1;-4,357910156E-2;1,395199656E0
9,261106250E1;-1,617521286E0;-8,944811821E-1;3,759051561E-1
9,271106250E1;-2,225554943E0;3,390059471E-1;-5,476794243E-1
9,281106250E1;5,109452248E0;-5,569269180E0;3,059089184E-1
9,291106250E1;-7,317647934E0;1,884717464E0;1,807846665E0
9,301106250E1;-2,312733173E0;-1,421938896E0;1,336693287E0
9,311106250E1;6,376951694E0;-6,669391632E0;-2,050005436E0
9,321106250E1;-2,362361908E0;1,020983219E0;-1,965115070E-1
9,331106250E1;2,036927223E0;-1,337912560E0;3,707339764E-1
9,341106250E1;1,884417057E0;-4,089584351E0;-6,328091621E-1
9,351106250E1;-7,144064903E-1;-3,566560745E-1;-5,889368057E-2
9,361106250E1;-1,037330627E-1;-3,619751930E-1;9,786486626E-2
9,371106250E1;-3,441286087E-2;-5,619220734E-1;1,279239655E-1
9,381106250E1;-4,761724472E-1;9,770727158E-1;2,858059406E-1
9,391106250E1;1,130951405E0;-1,036294460E0;-2,438170910E-1
9,401106250E1;-6,128973961E-1;4,521179199E-1;2,509601116E-1
9,411106250E1;5,302886963E-1;-6,977453232E-1;6,402363777E-1
9,421106250E1;-4,291710854E-1;7,123432159E-1;2,606739998E-1
9,431106250E1;3,207101822E-1;6,372380257E-1;3,448598385E-1
9,441106250E1;3,632802963E-1;7,052922249E-1;1,221989155E0
9,451106250E1;8,253736496E-1;-4,714927673E-1;1,722757816E-1
9,461106250E1;-2,405066490E-1;1,562857628E-1;-3,092677593E-1
9,471106250E1;6,590900421E-1;-1,251111031E0;-9,960203171E-1
9,481106250E1;6,262888908E-1;5,786709785E-1;1,674289703E-1
9,491106250E1;-6,702811241E0;6,248064041E-1;1,913446903E0
9,501106250E1;1,599995136E0;-1,073697090E0;1,605961323E0
9,511106250E1;4,622077942E-1;7,763361931E-1;-1,747295856E0
9,521106250E1;-1,354813099E0;9,342384338E-1;9,581816196E-2
9,531106250E1;2,419457197E0;-3,893667221E0;-9,709358215E-1
9,541106250E1;1,997279644E0;1,801816463E0;-2,064589977E0
9,551106250E1;4,211487770E-1;-1,774444580E0;-4,583784342E-1
9,561106250E1;4,211487770E-1;-1,774444580E0;-4,583784342E-1
9,571106250E1;4,211487770E-1;-1,774444580E0;-4,583784342E-1
9,581106250E1;4,211487770E-1;-1,774444580E0;-4,583784342E-1
9,591106250E1;4,211487770E-1;-1,774444580E0;-4,583784342E-1
9,601106250E1;4,211487770E-1;-1,774444580E0;-4,583784342E-1
9,611106250E1;4,211487770E-1;-1,774444580E0;-4,583784342E-1
9,621106250E1;4,211487770E-1;-1,774444580E0;-4,583784342E-1
9,631106250E1;4,211487770E-1;-1,774444580E0;-4,583784342E-1
9,641106250E1;4,211487770E-1;-1,774444580E0;-4,583784342E-1
9,651106250E1;4,211487770E-1;-1,774444580E0;-4,583784342E-1
9,661106250E1;4,211487770E-1;-1,774444580E0;-4,583784342E-1
9,671106250E1;4,211487770E-1;-1,774444580E0;-4,583784342E-1
9,681106250E1;4,211487770E-1;-1,774444580E0;-4,583784342E-1
9,691106250E1;4,211487770E-1;-1,774444580E0;-4,583784342E-1
9,701106250E1;4,211487770E-1;-1,774444580E0;-4,583784342E-1
9,711106250E1;4,211487770E-1;-1,774444580E0;-4,583784342E-1
9,721106250E1;4,211487770E-1;-1,774444580E0;-4,583784342E-1
9,731106250E1;4,211487770E-1;-1,774444580E0;-4,583784342E-1
9,741106250E1;4,211487770E-1;-1,774444580E0;-4,583784342E-1
9,751106250E1;4,211487770E-1;-1,774444580E0;-4,583784342E-1
9,761106250E1;4,211487770E-1;-1,774444580E0;-4,583784342E-1
9,771106250E1;4,211487770E-1;-1,774444580E0;-4,583784342E-1
9,781106250E1;-4,450616837E-1;2,066016197E-1;-2,488415241E-1
9,791106250E1;-4,450616837E-1;2,066016197E-1;-2,488415241E-1
9,801106250E1;-4,450616837E-1;2,066016197E-1;-2,488415241E-1
9,811106250E1;2,688170433E0;-1,019150734E0;-1,080559373E0
9,821106250E1;2,845648766E0;-1,922737122E0;1,183223844E0
9,831106250E1;-9,511194229E-1;-8,269114494E-1;2,094476700E0
9,841106250E1;-5,257604599E0;6,088502407E-1;1,874362707E0
9,851106250E1;-6,262720108E0;2,282775402E0;1,255537033E0
9,861106250E1;-1,473889351E-1;1,903455257E0;1,704550982E-1
9,871106250E1;-2,860073805E0;-2,262292862E0;-8,135325909E-1
9,881106250E1;-1,057410240E-2;-2,431361198E1;-7,507750511E0
9,891106250E1;-4,305764675E0;-5,019014359E0;-6,674239159E0
9,901106250E1;-4,158158302E0;8,548512459E-1;8,060569763E0
9,911106250E1;-6,939488411E0;-2,062797546E-3;-7,540812492E-1
9,921106250E1;-4,689782143E0;2,447285414E0;1,201896906E0
9,931106250E1;-3,165421009E0;-1,599189281E0;2,936984777E0
9,941106250E1;-2,808104992E0;3,059311867E0;3,327085495E0
9,951106250E1;-2,875924110E-1;2,280253410E0;-3,339856148E0
9,961106250E1;1,411967278E0;-7,070884705E-1;-1,103473306E0
9,971106250E1;4,227569103E0;-5,864000320E-1;3,399523497E-1
9,981106250E1;4,413524151E0;6,597890854E-1;-1,320066214E0
9,991106250E1;1,157000065E0;-8,128089905E-1;1,351796389E-1
1,000110625E2;1,945033550E0;-2,706148624E0;-8,642354012E-1
1,001110625E2;-3,111540794E0;-4,927163124E-1;1,423067570E0
1,002110625E2;-4,603112221E0;3,303740025E0;2,034855366E0
1,003110625E2;-1,160514355E0;1,558333397E0;8,692854643E-1
1,004110625E2;-3,075189590E-1;-3,335895538E-1;6,568092108E-1
1,005110625E2;4,179095268E0;-5,433921814E-1;-1,355618238E0
1,006110625E2;2,854322433E0;-1,075492859E0;3,494564533E0
1,007110625E2;3,295295238E0;-2,694471359E0;-2,228588104E0
1,008110625E2;5,059869766E0;-5,625282764E0;5,684037209E-1
1,009110625E2;-2,196630478E0;-3,555289745E0;8,089661598E-2
1,010110625E2;-1,045811081E1;2,135660887E0;1,311059952E0
1,011110625E2;-6,268445015E0;4,264748096E0;3,307907581E0
1,012110625E2;3,833800793E0;-5,856095791E0;1,094630241E0
1,013110625E2;1,795181274E0;-5,177116394E-2;-1,193413615E0
1,014110625E2;1,976740599E0;7,568922043E-1;-1,075326204E0
1,015110625E2;1,982443810E0;-2,388510704E0;1,118994832E0
1,016110625E2;-3,068442345E-1;-8,058319092E-1;-4,605420828E-1
1,017110625E2;2,682545662E0;-2,398231030E0;-5,342494249E-1
1,018110625E2;1,867709160E-1;-1,980143070E0;1,869406581E0
1,019110625E2;-5,128726959E0;3,496822357E0;1,772859812E0
1,020110625E2;-3,967302799E0;4,280227661E0;1,513301373E0
1,021110625E2;1,339719772E0;-1,494323254E0;-3,526414633E-1
1,022110625E2;2,636771679E0;-1,802412033E0;-8,694322109E-1
1,023110625E2;4,506249428E-1;1,725519657E0;-1,871882677E0
1,024110625E2;3,624074459E0;-3,891297340E0;2,347611189E-1
1,025110625E2;-1,417089939E0;-1,690645218E-1;-2,914874554E-1
1,026110625E2;1,095716953E0;-4,996079922E0;5,922935009E-1
1,027110625E2;-6,272339821E-1;-4,871740341E-1;2,548573971E0
1,028110625E2;-7,129142284E0;1,877277136E0;2,754641771E0
1,029110625E2;1,735539436E0;2,873080015E0;1,093834519E0
1,030110625E2;9,470944405E-1;-1,733427048E-1;7,061517239E-2
1,031110625E2;9,470944405E-1;-1,733427048E-1;7,061517239E-2
1,032110625E2;9,470944405E-1;-1,733427048E-1;7,061517239E-2
1,033110625E2;9,470944405E-1;-1,733427048E-1;7,061517239E-2
1,034110625E2;9,470944405E-1;-1,733427048E-1;7,061517239E-2
1,035110625E2;9,470944405E-1;-1,733427048E-1;7,061517239E-2
1,036110625E2;9,470944405E-1;-1,733427048E-1;7,061517239E-2
1,037110625E2;9,470944405E-1;-1,733427048E-1;7,061517239E-2
1,038110625E2;9,470944405E-1;-1,733427048E-1;7,061517239E-2
1,039110625E2;9,470944405E-1;-1,733427048E-1;7,061517239E-2
1,040110625E2;9,470944405E-1;-1,733427048E-1;7,061517239E-2
1,041110625E2;9,470944405E-1;-1,733427048E-1;7,061517239E-2
1,042110625E2;9,470944405E-1;-1,733427048E-1;7,061517239E-2
1,043110625E2;9,470944405E-1;-1,733427048E-1;7,061517239E-2
1,044110625E2;9,470944405E-1;-1,733427048E-1;7,061517239E-2
1,045110625E2;9,470944405E-1;-1,733427048E-1;7,061517239E-2
1,046110625E2;9,470944405E-1;-1,733427048E-1;7,061517239E-2
1,047110625E2;9,470944405E-1;-1,733427048E-1;7,061517239E-2
1,048110625E2;9,470944405E-1;-1,733427048E-1;7,061517239E-2
1,049110625E2;9,470944405E-1;-1,733427048E-1;7,061517239E-2
1,050110625E2;9,470944405E-1;-1,733427048E-1;7,061517239E-2
1,051110625E2;9,470944405E-1;-1,733427048E-1;7,061517239E-2
1,052110625E2;3,348421574E0;-1,921248436E-1;-1,196971774E0
1,053110625E2;3,348421574E0;-1,921248436E-1;-1,196971774E0
1,054110625E2;3,348421574E0;-1,921248436E-1;-1,196971774E0
1,055110625E2;-5,121850967E0;4,224233627E0;3,075151443E-1
1,056110625E2;-9,102050781E0;7,956287384E0;1,181383610E0
1,057110625E2;1,330163288E1;-2,133736134E0;1,310213566E0
1,058110625E2;3,421201706E-1;1,051961899E0;3,678487301E0
1,059110625E2;2,402121067E0;1,630845070E0;-1,626110077E-1
1,060110625E2;1,290781975E0;7,827920914E-1;1,621437669E0
1,061110625E2;-1,096825600E-1;-2,047550201E0;-7,665399313E-1
1,062110625E2;8,741903305E-1;-9,882616997E-1;-3,289067745E-2
1,063110625E2;-2,221450329E0;-2,448902130E0;-7,515521049E-1
1,064110625E2;-7,035331249E0;1,035081625E0;1,590659738E0
1,065110625E2;9,209280014E-1;3,361876965E0;2,213238716E0
1,066110625E2;-1,008653164E0;-4,012012482E-2;-1,753924489E0
1,067110625E2;8,826613426E-1;1,802402020E0;-4,428927898E-1
1,068110625E2;1,191560984E0;-1,897919655E0;-2,029605389E0
1,069110625E2;1,358770370E0;8,437404633E-1;2,763113022E0
1,070110625E2;1,851549149E0;8,294582367E-2;-1,887223125E0
1,071110625E2;6,763978004E-1;-4,641413689E-1;-8,987283707E-2
1,072110625E2;-1,145375729E0;-1,623878479E0;9,689650536E-1
1,073110625E2;-2,683447838E0;2,921338081E-1;3,493145466E0
1,074110625E2;-6,693891525E0;5,333852291E0;2,238523722E0
1,075110625E2;2,165938377E0;-1,421357632E0;-5,521333218E-2
1,076110625E2;8,278069496E-1;-1,365209579E0;-1,365554333E-1
1,077110625E2;2,333656788E0;-1,530200958E0;-1,692462564E0
1,078110625E2;2,712595463E-1;-1,358704567E0;2,689900398E-1
1,079110625E2;3,461880684E-1;7,962384224E-1;-1,787465692E0
1,080110625E2;1,490836620E0;-1,381502628E0;-1,641522884E0
1,081110625E2;-1,246202946E0;5,551152229E-1;1,771345377E0
1,082110625E2;-4,603157043E0;-1,315736294E0;1,321064234E0
1,083110625E2;-3,125820637E0;3,002643347E0;7,679357529E-1
1,084110625E2;3,420877457E-1;1,991510391E0;-2,446898460E0
1,085110625E2;1,974909782E0;-2,773792267E0;-3,170778036E0
1,086110625E2;6,321269989E0;2,322654724E-1;9,568552375E-1
1,087110625E2;4,113999367E0;1,175737381E-1;-2,140718699E-1
1,088110625E2;-3,702532053E0;3,893537521E-1;1,237519264E0
1,089110625E2;3,808627605E0;-1,678297043E0;1,708493948E0
1,090110625E2;2,718610287E0;-1,341514587E-1;2,678283453E0
1,091110625E2;-5,153985977E0;5,542830467E0;3,734670162E0
1,092110625E2;-5,083745956E0;2,729816675E0;1,147400975E0
1,093110625E2;-4,508962631E-1;1,269355774E0;1,167475581E0
1,094110625E2;3,626994610E0;-4,213272095E0;6,197699904E-1
1,095110625E2;4,607380867E0;-5,459947586E-1;-1,521543860E0
1,096110625E2;1,593698978E0;-1,078486443E0;-1,560503244E0
1,097110625E2;-1,589110851E0;-1,740419388E0;-1,321166515E0
1,098110625E2;2,504913330E0;-2,721813202E0;-7,076650858E-1
1,099110625E2;9,595093727E-1;-1,501258850E0;2,049981356E0
1,100110625E2;-6,626154900E0;1,632896423E0;-3,064441681E-2
1,101110625E2;-4,034269333E0;-6,874432564E-1;-2,890025139E0
1,102110625E2;1,252230167E0;2,739887238E-1;2,581310272E-2
1,103110625E2;2,180694103E0;-1,334466934E0;-2,506808043E0
1,104110625E2;3,888002157E0;-1,863588333E0;-1,518239975E-1
1,105110625E2;3,888002157E0;-1,863588333E0;-1,518239975E-1
1,106110625E2;3,888002157E0;-1,863588333E0;-1,518239975E-1
1,107110625E2;3,888002157E0;-1,863588333E0;-1,518239975E-1
1,108110625E2;3,888002157E0;-1,863588333E0;-1,518239975E-1
1,109110625E2;3,888002157E0;-1,863588333E0;-1,518239975E-1
1,110110625E2;3,888002157E0;-1,863588333E0;-1,518239975E-1
1,111110625E2;3,888002157E0;-1,863588333E0;-1,518239975E-1
1,112110625E2;3,888002157E0;-1,863588333E0;-1,518239975E-1
1,113110625E2;3,888002157E0;-1,863588333E0;-1,518239975E-1
1,114110625E2;3,888002157E0;-1,863588333E0;-1,518239975E-1
1,115110625E2;3,888002157E0;-1,863588333E0;-1,518239975E-1
1,116110625E2;3,888002157E0;-1,863588333E0;-1,518239975E-1
1,117110625E2;3,888002157E0;-1,863588333E0;-1,518239975E-1
1,118110625E2;3,888002157E0;-1,863588333E0;-1,518239975E-1
1,119110625E2;3,888002157E0;-1,863588333E0;-1,518239975E-1
1,120110625E2;3,888002157E0;-1,863588333E0;-1,518239975E-1
1,121110625E2;3,888002157E0;-1,863588333E0;-1,518239975E-1
1,122110625E2;3,888002157E0;-1,863588333E0;-1,518239975E-1
1,123110625E2;3,888002157E0;-1,863588333E0;-1,518239975E-1
1,124110625E2;3,888002157E0;-1,863588333E0;-1,518239975E-1
1,125110625E2;-8,110852242E-1;-1,159548283E0;-3,777971268E-1
1,126110625E2;-8,110852242E-1;-1,159548283E0;-3,777971268E-1
1,127110625E2;-1,919238567E0;6,489129066E0;9,923046827E-1
1,128110625E2;-5,276489258E-2;-8,739643097E-1;-1,325750351E0
1,129110625E2;3,197365284E0;2,177387714E0;2,910629511E-1
1,130110625E2;4,550488949E0;-2,768310547E0;-2,295351505E0
1,131110625E2;1,468000889E0;3,345536232E0;-2,377544641E0
1,132110625E2;8,936190605E-1;-3,094948769E0;8,310254812E-1
1,133110625E2;1,948688030E0;-1,881360531E0;5,480537415E-1
1,134110625E2;-2,907503128E0;-9,355463982E-1;2,740185261E-1
1,135110625E2;-3,144940376E0;-1,446846485E0;4,459775925E0
1,136110625E2;-2,904050827E0;3,225454330E0;1,026763678E0
1,137110625E2;-1,028852463E0;2,853093147E-1;-2,427365780E-1
1,138110625E2;2,981508255E0;-9,665393829E-1;2,120110035E0
1,139110625E2;4,471244812E0;-1,380762100E0;2,192175388E-1
1,140110625E2;1,937046766E0;8,482036591E-1;-2,706408501E-1
1,141110625E2;1,264691353E-1;-2,094068527E-1;1,547312975E0
1,142110625E2;1,496444702E0;-4,102429867E0;-8,567876816E-1
1,143110625E2;-3,055898190E0;-1,381807327E-1;2,010997295E0
1,144110625E2;-4,348651886E0;3,304498196E0;5,800043106E0
1,145110625E2;-2,191496372E0;2,528981209E0;-3,713591099E-1
1,146110625E2;4,275772572E0;1,767704010E0;-1,907787323E-1
1,147110625E2;2,247483730E0;-3,056464195E0;3,312458098E-1
1,148110625E2;1,431375027E0;-8,572196960E-2;-4,917035103E-1
1,149110625E2;4,325366020E0;-1,990341187E0;-2,092667818E-1
1,150110625E2;-3,397779465E-1;-1,749114990E0;8,988130689E-1
1,151110625E2;-1,075087070E0;-1,145390987E0;5,759098530E-1
1,152110625E2;-1,798719883E0;-1,079492569E-1;7,659449577E-1
1,153110625E2;-3,905460835E0;1,069605350E0;5,926680565E-1
1,154110625E2;-4,999935627E0;4,886692047E0;1,885222673E0
1,155110625E2;1,585577011E0;-2,320086956E0;-3,546407223E-1
1,156110625E2;3,886420012E0;-9,441289902E-1;1,592862964E0
1,157110625E2;5,622165203E0;-3,973289490E0;-4,264480591E0
1,158110625E2;-3,955717087E-1;4,656467438E-1;2,757778168E-1
1,159110625E2;3,799107552E0;-3,673758030E0;-2,873429060E-1
1,160110625E2;-1,397699833E0;-4,214816093E-1;7,047394514E-1
1,161110625E2;-4,645979881E0;-2,325248718E-2;3,941601992E0
1,162110625E2;-2,299350739E0;4,408294201E0;-6,949243546E-1
1,163110625E2;-2,731567860E0;-9,586720467E-1;-1,896817446E0
1,164110625E2;-4,123768806E-1;1,426240921E0;2,701030016E0
1,165110625E2;3,441626549E0;-3,988446236E0;-5,317587852E0
1,166110625E2;3,266916275E0;2,716617584E-1;-2,072874784E0
1,167110625E2;4,113747597E0;-5,236421108E0;3,807751656E0
1,168110625E2;2,996716499E-1;-2,081624031E0;6,805537939E-1
1,169110625E2;-5,801427841E0;2,488823175E0;3,593276024E0
1,170110625E2;2,000567913E0;-1,291005611E0;2,530658722E0
1,171110625E2;-3,941466331E0;7,255172729E-1;1,191771269E0
1,172110625E2;-1,964011192E-1;3,261238813E0;-3,337706327E-1
1,173110625E2;1,358462334E0;-3,158712387E-1;-1,574265480E0
1,174110625E2;3,812154770E0;-1,512127876E0;-5,218387842E-1
1,175110625E2;4,235723972E0;3,162708282E-1;1,072287798E0
1,176110625E2;3,162798882E-1;-4,997169495E0;-2,674521446E0
1,177110625E2;9,430460930E-1;6,418929100E-1;1,046315432E0
1,178110625E2;1,072254658E0;-2,656249523E0;-9,848594666E-3
1,179110625E2;1,072254658E0;-2,656249523E0;-9,848594666E-3
1,180110625E2;1,072254658E0;-2,656249523E0;-9,848594666E-3
1,181110625E2;1,072254658E0;-2,656249523E0;-9,848594666E-3
1,182110625E2;1,072254658E0;-2,656249523E0;-9,848594666E-3
1,183110625E2;1,072254658E0;-2,656249523E0;-9,848594666E-3
1,184110625E2;1,072254658E0;-2,656249523E0;-9,848594666E-3
1,185110625E2;1,072254658E0;-2,656249523E0;-9,848594666E-3
1,186110625E2;1,072254658E0;-2,656249523E0;-9,848594666E-3
1,187110625E2;1,072254658E0;-2,656249523E0;-9,848594666E-3
1,188110625E2;1,072254658E0;-2,656249523E0;-9,848594666E-3
1,189110625E2;1,072254658E0;-2,656249523E0;-9,848594666E-3
1,190110625E2;1,072254658E0;-2,656249523E0;-9,848594666E-3
1,191110625E2;1,072254658E0;-2,656249523E0;-9,848594666E-3
1,192110625E2;1,072254658E0;-2,656249523E0;-9,848594666E-3
1,193110625E2;1,072254658E0;-2,656249523E0;-9,848594666E-3
1,194110625E2;1,072254658E0;-2,656249523E0;-9,848594666E-3
1,195110625E2;1,072254658E0;-2,656249523E0;-9,848594666E-3
1,196110625E2;1,072254658E0;-2,656249523E0;-9,848594666E-3
1,197110625E2;1,072254658E0;-2,656249523E0;-9,848594666E-3
1,198110625E2;1,072254658E0;-2,656249523E0;-9,848594666E-3
1,199110625E2;1,072254658E0;-2,656249523E0;-9,848594666E-3
1,200110625E2;1,870737791E0;-1,731333733E0;4,232935905E-1
1,201110625E2;4,033744812E0;8,345680237E-1;-4,925664067E-1
1,202110625E2;4,033744812E0;8,345680237E-1;-4,925664067E-1
1,203110625E2;1,278105259E0;-2,548895836E0;-5,726555586E-1
1,204110625E2;-3,721427441E0;-7,836651802E-1;1,332622886E0
1,205110625E2;-4,793342590E0;2,829830647E0;2,438833237E0
1,206110625E2;-2,758959293E0;1,290400028E0;1,416413069E0
1,207110625E2;2,024156570E0;-3,209979057E0;-2,770493627E-1
1,208110625E2;6,090733051E0;-3,937037468E0;-1,391317606E0
1,209110625E2;-3,608415127E-1;1,838624001E0;3,545870781E0
1,210110625E2;4,092071056E0;-2,173016548E0;-6,307758689E-1
1,211110625E2;-4,879379272E-2;2,540636063E-1;-4,423856735E-1
1,212110625E2;-9,686708450E-1;-1,220595360E0;-5,319077969E-1
1,213110625E2;-3,334142208E0;-3,802189827E-1;2,473676205E0
1,214110625E2;-4,586421013E0;5,267764568E0;-9,497437477E-1
1,215110625E2;-1,195125580E0;-3,785467148E-2;-1,256232738E0
1,216110625E2;1,290244579E0;5,470762253E-1;4,941575527E-1
1,217110625E2;3,897773027E0;-1,760368347E-1;-2,049802303E0
1,218110625E2;-4,443720818E0;1,709115982E0;3,458764553E0
1,219110625E2;1,081304073E0;-2,219399452E0;2,566732883E0
1,220110625E2;2,394590855E0;2,926440239E-1;-1,433072329E0
1,221110625E2;-2,359836102E0;5,378856659E-1;1,506018639E0
1,222110625E2;-5,389532089E0;2,062699318E0;1,395218372E0
1,223110625E2;-5,276928425E0;1,245989323E0;4,794134140E0
1,224110625E2;2,871303558E-1;-1,164085388E0;-5,766652822E-1
1,225110625E2;3,363481045E0;4,596996307E-2;-1,805858970E0
1,226110625E2;2,922011375E0;-1,031096458E0;-8,884332180E-1
1,227110625E2;3,056706429E0;1,248399258E0;-8,257161379E-1
1,228110625E2;-5,819063187E-1;7,556128502E-1;1,030867934E0
1,229110625E2;7,624583244E-1;-1,090676785E0;-1,056950092E-1
1,230110625E2;-2,383653164E0;-1,648191452E0;3,417077065E-1
1,231110625E2;-5,867616653E0;3,569788933E-1;1,736432433E0
1,232110625E2;-1,447918415E0;2,362164974E0;1,482170582E0
1,233110625E2;-6,927118301E-1;9,011669159E-1;-1,067700863E0
1,234110625E2;5,575249195E0;-4,530041695E0;1,166010618E0
1,235110625E2;4,299328804E0;-7,262792587E-1;-1,915964484E0
1,236110625E2;2,715602875E0;8,365287781E-1;6,188237667E-2
1,237110625E2;-1,220414162E0;-9,942407608E-1;6,164857149E-1
1,238110625E2;-6,668925285E-1;-1,556944370E0;4,805595875E-1
1,239110625E2;-3,458701611E0;-2,351428032E0;9,749212265E-1
1,240110625E2;-3,781754017E0;-7,632422447E-1;1,030054092E0
1,241110625E2;-1,119432449E-1;3,116132021E0;-9,360347986E-1
1,242110625E2;2,805323124E0;-1,352242470E0;-1,834617615E0
1,243110625E2;3,498740673E0;3,679637909E-1;-2,197067976E0
1,244110625E2;1,472323895E0;-4,284219742E-1;4,856860638E-2
1,245110625E2;1,129889488E0;-1,072792053E0;3,178107738E-2
1,246110625E2;3,650570393E0;-2,210460663E0;-1,352192044E0
1,247110625E2;-1,929983139E0;-6,677927971E-1;7,100722790E-1
1,248110625E2;-3,178563118E0;3,620343208E-1;1,704667926E0
1,249110625E2;-6,358216763E0;1,313963175E0;9,097115993E-1
1,250110625E2;1,316537857E-1;1,044651508E0;3,455173969E-1
1,251110625E2;2,820568085E-1;-1,309082031E0;-1,301635981E0
1,252110625E2;4,730547905E0;-1,542695999E0;-1,177579641E0
1,253110625E2;9,905877113E-1;1,240053177E0;2,367157459E0
1,254110625E2;9,905877113E-1;1,240053177E0;2,367157459E0
1,255110625E2;9,905877113E-1;1,240053177E0;2,367157459E0
1,256110625E2;9,905877113E-1;1,240053177E0;2,367157459E0
1,257110625E2;9,905877113E-1;1,240053177E0;2,367157459E0
1,258110625E2;9,905877113E-1;1,240053177E0;2,367157459E0
1,259110625E2;9,905877113E-1;1,240053177E0;2,367157459E0
1,260110625E2;9,905877113E-1;1,240053177E0;2,367157459E0
1,261110625E2;9,905877113E-1;1,240053177E0;2,367157459E0
1,262110625E2;9,905877113E-1;1,240053177E0;2,367157459E0
1,263110625E2;9,905877113E-1;1,240053177E0;2,367157459E0
1,264110625E2;9,905877113E-1;1,240053177E0;2,367157459E0
1,265110625E2;9,905877113E-1;1,240053177E0;2,367157459E0
1,266110625E2;9,905877113E-1;1,240053177E0;2,367157459E0
1,267110625E2;9,905877113E-1;1,240053177E0;2,367157459E0
1,268110625E2;9,905877113E-1;1,240053177E0;2,367157459E0
1,269110625E2;9,905877113E-1;1,240053177E0;2,367157459E0
1,270110625E2;9,905877113E-1;1,240053177E0;2,367157459E0
1,271110625E2;9,905877113E-1;1,240053177E0;2,367157459E0
1,272110625E2;9,905877113E-1;1,240053177E0;2,367157459E0
1,273110625E2;9,905877113E-1;1,240053177E0;2,367157459E0
1,274110625E2;-3,042351246E0;-2,070951462E-2;1,641962051E0
1,275110625E2;-4,292426109E0;3,035141706E0;2,908215046E0
1,276110625E2;-4,292426109E0;3,035141706E0;2,908215046E0
1,277110625E2;4,114841461E0;-1,292678833E0;-1,868647695E0
1,278110625E2;2,741407871E0;2,522363663E0;1,573390484E0
1,279110625E2;3,488663197E0;-2,926054001E-1;-6,941652298E-1
1,280110625E2;-1,868577242E0;-8,968286514E-1;2,834112644E-1
1,281110625E2;4,495922089E0;-1,842246056E0;3,181452751E0
1,282110625E2;-1,033725262E0;-3,251620770E0;1,930639029E0
1,283110625E2;-6,287813187E0;1,776776075E0;2,941362858E0
1,284110625E2;-1,878047943E0;-5,825014114E-1;1,107000470E0
1,285110625E2;5,542545319E-1;-2,917250633E0;1,919244647E0
1,286110625E2;4,113714695E0;6,412239075E-1;5,695016384E-1
1,287110625E2;2,661506176E0;-2,305665016E0;-1,127117872E-1
1,288110625E2;5,174584389E-1;1,519027233E0;-8,631422520E-1
1,289110625E2;1,218264580E0;-1,531829834E-1;1,029750109E-1
1,290110625E2;-8,404731750E-2;-4,136551380E0;5,461134911E-1
1,291110625E2;-2,731949806E0;-3,424737453E0;1,352139711E0
1,292110625E2;-2,278673172E0;1,637152910E0;1,506083965E0
1,293110625E2;-5,379586220E-1;5,145779133E0;-3,560794115E0
1,294110625E2;-7,328844070E-1;-2,153030872E0;2,959079742E-1
1,295110625E2;6,040030956E0;-2,343580246E0;-7,040013075E-1
1,296110625E2;5,033756733E0;-1,094766617E0;5,386923552E-1
1,297110625E2;-6,129307747E-1;1,205949306E0;-1,995644808E0
1,298110625E2;4,152583599E0;-3,645749092E0;8,830907345E-1
1,299110625E2;-1,123950481E0;-1,084544659E0;2,532597065E0
1,300110625E2;-1,097623825E0;-2,540893078E0;3,710343361E0
1,301110625E2;-3,283179760E0;2,547793150E0;1,251416206E0
1,302110625E2;-1,373627186E0;2,419168949E0;-1,442049503E0
1,303110625E2;1,601148129E0;-3,533499718E0;9,254482985E-1
1,304110625E2;4,074008942E0;7,676205635E-1;7,677106857E-1
1,305110625E2;3,441196918E0;-9,292335510E-1;1,782828093E0
1,306110625E2;8,153462410E-1;-2,657251358E-1;1,363578320E0
1,307110625E2;1,575532913E0;-1,577113628E0;3,396277905E0
1,308110625E2;8,993387222E-1;-3,255764008E0;3,201627731E0
1,309110625E2;-2,877394915E0;-1,242132187E-1;4,980961800E0
1,310110625E2;-3,466494083E0;4,114596844E0;5,368068695E0
1,311110625E2;2,112873554E0;-9,039421082E-1;1,732982159E0
1,312110625E2;1,402903080E0;-2,337331772E0;-3,592672348E-1
1,313110625E2;4,439773083E0;-1,111169815E0;2,250587463E0
1,314110625E2;5,995088577E0;-1,385230064E0;5,009853363E0
1,315110625E2;-1,008441448E0;6,108984947E-1;4,425692081E0
1,316110625E2;2,084457397E0;-2,137423515E0;4,647412777E0
1,317110625E2;-9,893751144E-1;-7,310633659E-1;8,930538177E0
1,318110625E2;-4,448156357E0;-9,268844128E-1;-5,118317604E-1
1,319110625E2;-4,829625130E0;5,741171360E0;7,974348068E-1
1,320110625E2;1,012749672E-1;-3,011885166E0;-4,554422379E0
1,321110625E2;4,031252861E0;-7,822504044E-1;-1,397538185E-1
1,322110625E2;3,552972794E0;-9,185037613E-1;6,206529140E-1
1,323110625E2;3,588335991E0;-1,921855927E0;2,138668537E0
1,324110625E2;-2,383704185E-1;-1,014319420E0;2,365947247E0
1,325110625E2;1,134701252E0;-2,695187569E0;2,889969826E0
1,326110625E2;1,291145325E0;-2,973966122E0;3,260558605E0
1,327110625E2;-5,537415504E0;-4,307384491E-1;3,193696737E0
1,328110625E2;-5,537415504E0;-4,307384491E-1;3,193696737E0
1,329110625E2;-5,537415504E0;-4,307384491E-1;3,193696737E0
1,330110625E2;-5,537415504E0;-4,307384491E-1;3,193696737E0
1,331110625E2;-5,537415504E0;-4,307384491E-1;3,193696737E0
1,332110625E2;-5,537415504E0;-4,307384491E-1;3,193696737E0
1,333110625E2;-5,537415504E0;-4,307384491E-1;3,193696737E0
1,334110625E2;-5,537415504E0;-4,307384491E-1;3,193696737E0
1,335110625E2;-5,537415504E0;-4,307384491E-1;3,193696737E0
1,336110625E2;-5,537415504E0;-4,307384491E-1;3,193696737E0
1,337110625E2;-5,537415504E0;-4,307384491E-1;3,193696737E0
1,338110625E2;-5,537415504E0;-4,307384491E-1;3,193696737E0
1,339110625E2;-5,537415504E0;-4,307384491E-1;3,193696737E0
1,340110625E2;-5,537415504E0;-4,307384491E-1;3,193696737E0
1,341110625E2;-5,537415504E0;-4,307384491E-1;3,193696737E0
1,342110625E2;-5,537415504E0;-4,307384491E-1;3,193696737E0
1,343110625E2;-5,537415504E0;-4,307384491E-1;3,193696737E0
1,344110625E2;-5,537415504E0;-4,307384491E-1;3,193696737E0
1,345110625E2;-5,537415504E0;-4,307384491E-1;3,193696737E0
1,346110625E2;-5,537415504E0;-4,307384491E-1;3,193696737E0
1,347110625E2;-5,537415504E0;-4,307384491E-1;3,193696737E0
1,348110625E2;5,567054749E0;-1,662592888E0;-8,094079494E-1
1,349110625E2;2,048923492E0;-1,213792801E0;-8,704590797E-2
1,350110625E2;2,048923492E0;-1,213792801E0;-8,704590797E-2
1,351110625E2;3,375717640E0;-1,275364399E0;1,557797194E-1
1,352110625E2;-1,638630390E0;-1,371183395E-1;1,509713769E0
1,353110625E2;-1,842406750E0;-2,272313118E0;1,611824036E0
1,354110625E2;-5,799190521E0;2,754608393E0;1,214803815E0
1,355110625E2;-6,420612335E-1;4,579601288E-1;-1,487507343E0
1,356110625E2;9,571681023E-1;-1,227095604E0;-1,252646208E0
1,357110625E2;3,757658482E0;-1,363802910E0;-1,306584239E0
1,358110625E2;1,559769154E0;-3,872642517E-1;-1,196146011E-3
1,359110625E2;-7,813148499E-1;-1,616727829E0;-1,489063740E0
1,360110625E2;3,185276985E0;-9,062895775E-1;-1,426349878E-1
1,361110625E2;-1,420858860E0;-7,222785950E-1;2,294563770E0
1,362110625E2;-2,491471767E0;-1,468474865E0;1,993728399E0
1,363110625E2;-6,539492607E0;1,743899822E0;2,080482244E-1
1,364110625E2;-3,090386391E-1;9,578294754E-1;-1,145804524E0
1,365110625E2;1,478117943E0;-1,678998947E0;-7,915976644E-1
1,366110625E2;4,010181427E0;-4,434413910E-1;-5,635100603E-1
1,367110625E2;2,428297520E0;-9,909543991E-1;1,983481646E-2
1,368110625E2;-2,175522566E0;-1,513150215E0;-8,570581675E-2
1,369110625E2;2,738992691E0;-2,179485321E0;1,178462505E-1
1,370110625E2;3,750553131E-1;-2,531098843E0;9,867957830E-1
1,371110625E2;-5,072697639E0;7,245447636E-1;3,165277481E0
1,372110625E2;-4,177562714E0;1,451881170E0;-9,731082916E-1
1,373110625E2;-8,210926056E-1;1,393207550E0;-1,370844126E0
1,374110625E2;2,380752563E0;-1,914319992E0;-9,846798182E-1
1,375110625E2;3,799534082E0;-4,840345383E-1;-1,845764279E0
1,376110625E2;2,342662334E0;-4,300642014E-1;-7,992810011E-2
1,377110625E2;-6,760101318E-1;-1,871792793E0;6,773301959E-2
1,378110625E2;2,334137917E0;-6,049448490E0;-1,540904403E0
1,379110625E2;-1,223026752E0;-1,172302246E0;2,924904346E0
1,380110625E2;-3,493384838E0;-6,937147141E0;-9,586586952E-1
1,381110625E2;-4,990300179E0;1,406259060E0;-2,953385115E-1
1,382110625E2;6,325883865E-1;-2,138593197E0;-1,460949659E0
1,383110625E2;2,251791477E0;2,134018898E0;-1,847775936E0
1,384110625E2;3,424039364E0;-2,791434288E0;-1,699469805E0
1,385110625E2;1,378434658E0;-1,090289116E0;-2,142407179E0
1,386110625E2;-9,020080566E-1;8,576517105E-1;-1,799197793E-1
1,387110625E2;-1,235194206E-1;-4,240149498E0;1,507692337E-1
1,388110625E2;2,295207024E0;-2,356044769E0;8,756778240E-1
1,389110625E2;-8,372159958E0;1,947044849E0;1,444856048E0
1,390110625E2;-2,992324352E0;5,806713104E-1;2,790963650E-2
1,391110625E2;-1,048703194E0;1,668122292E0;-5,852159262E-1
1,392110625E2;1,320390701E0;-3,587019920E0;2,746981084E-1
1,393110625E2;1,948358059E0;-7,180685997E0;-5,046115875E0
1,394110625E2;3,323059082E0;-3,252233505E0;-6,895372272E-1
1,395110625E2;9,108099937E-1;-9,864521027E-2;-1,983077526E0
1,396110625E2;-5,422697067E-1;-5,029375553E0;-9,410640001E-1
1,397110625E2;2,974983215E0;-3,048989296E0;7,701199055E-1
1,398110625E2;-6,025953770E0;2,417993546E0;2,541496992E0
1,399110625E2;-4,894062996E0;5,405546188E0;-3,720371723E-1
1,400110625E2;9,551105499E-1;-4,012541771E0;2,218971252E-1
1,401110625E2;2,618967533E0;-1,953660011E0;-5,423226357E-1
1,402110625E2;2,618967533E0;-1,953660011E0;-5,423226357E-1
1,403110625E2;2,618967533E0;-1,953660011E0;-5,423226357E-1
1,404110625E2;2,618967533E0;-1,953660011E0;-5,423226357E-1
1,405110625E2;2,618967533E0;-1,953660011E0;-5,423226357E-1
1,406110625E2;2,618967533E0;-1,953660011E0;-5,423226357E-1
1,407110625E2;2,618967533E0;-1,953660011E0;-5,423226357E-1
1,408110625E2;2,618967533E0;-1,953660011E0;-5,423226357E-1
1,409110625E2;2,618967533E0;-1,953660011E0;-5,423226357E-1
1,410110625E2;2,618967533E0;-1,953660011E0;-5,423226357E-1
1,411110625E2;2,618967533E0;-1,953660011E0;-5,423226357E-1
1,412110625E2;2,618967533E0;-1,953660011E0;-5,423226357E-1
1,413110625E2;2,618967533E0;-1,953660011E0;-5,423226357E-1
1,414110625E2;2,618967533E0;-1,953660011E0;-5,423226357E-1
1,415110625E2;2,618967533E0;-1,953660011E0;-5,423226357E-1
1,416110625E2;2,618967533E0;-1,953660011E0;-5,423226357E-1
1,417110625E2;2,618967533E0;-1,953660011E0;-5,423226357E-1
1,418110625E2;2,618967533E0;-1,953660011E0;-5,423226357E-1
1,419110625E2;2,618967533E0;-1,953660011E0;-5,423226357E-1
1,420110625E2;2,618967533E0;-1,953660011E0;-5,423226357E-1
1,421110625E2;2,618967533E0;-1,953660011E0;-5,423226357E-1
1,422110625E2;2,618967533E0;-1,953660011E0;-5,423226357E-1
1,423110625E2;-7,154923439E0;8,018152714E-1;1,561637640E0
1,424110625E2;-7,154923439E0;8,018152714E-1;1,561637640E0
1,425110625E2;-7,154923439E0;8,018152714E-1;1,561637640E0
1,426110625E2;3,798058987E0;-3,024363518E0;-6,003792882E-1
1,427110625E2;3,798058987E0;-3,024363518E0;-6,003792882E-1
1,428110625E2;1,801683426E0;-1,345201492E0;-7,014447451E-1
1,429110625E2;-6,981906891E-1;-1,604821682E0;2,899386287E-1
1,430110625E2;-9,987287521E-1;-2,117204666E0;-6,924629211E-2
1,431110625E2;-1,683165550E0;-9,100813866E-1;1,099611521E0
1,432110625E2;-5,518026352E0;1,729244471E0;1,855878711E0
1,433110625E2;-8,847932816E-1;1,912045956E0;-1,005210638E0
1,434110625E2;1,657724857E0;-2,299366951E0;-6,866368055E-1
1,435110625E2;3,599044561E0;-3,122043610E-1;-1,735502601E0
1,436110625E2;2,799682379E0;-1,527660370E0;-2,914656401E-1
1,437110625E2;-1,099518299E0;-9,862709045E-1;-4,926316142E-1
1,438110625E2;3,074412346E0;-2,550032616E0;-2,677491903E-1
1,439110625E2;-4,139246941E-1;-2,978661060E0;9,646729231E-1
1,440110625E2;-6,256402493E0;9,735982418E-1;2,955240488E0
1,441110625E2;-5,697156906E0;2,734889746E0;5,208790302E-2
1,442110625E2;-2,667284012E-2;5,342283249E-1;-5,823710561E-1
1,443110625E2;2,483189106E0;-1,516785622E0;-1,953945041E0
1,444110625E2;4,189060688E0;-9,924774170E-1;-1,510795712E0
1,445110625E2;1,719824791E0;1,021671295E-2;-2,069121599E-2
1,446110625E2;-1,034772873E0;-2,113416195E0;-5,044980645E-1
1,447110625E2;-1,052777767E0;-1,590550423E0;-8,851813078E-1
1,448110625E2;-1,952875137E0;-1,386980534E0;1,718970180E0
1,449110625E2;-6,245131969E0;1,694088936E0;1,475937605E0
1,450110625E2;-5,841193199E-1;1,716798306E0;-1,056980968E0
1,451110625E2;5,728278160E-1;-1,514189720E0;-1,180411220E0
1,452110625E2;5,219570637E0;-1,516192436E0;-8,900769353E-1
1,453110625E2;2,740407705E0;-3,622655869E-1;4,079668522E-1
1,454110625E2;-6,744885445E-1;-1,406175613E0;-4,058757424E-1
1,455110625E2;3,226692677E0;-3,111925125E0;3,180710077E-1
1,456110625E2;-1,640903473E0;-5,710337639E0;-5,078833103E-1
1,457110625E2;-7,649166107E0;-4,666306973E-1;3,756365061E0
1,458110625E2;4,543037415E0;-3,343212128E0;2,190336466E0
1,459110625E2;-9,828743935E-1;7,859869003E-1;-1,825774908E0
1,460110625E2;1,857806444E0;-9,513387680E-1;-1,956125498E0
1,461110625E2;5,230103016E0;2,157649994E-1;-1,706802249E0
1,462110625E2;1,781071663E0;2,424493313E0;-3,598315716E-1
1,463110625E2;1,067015171E0;-6,698933601E0;-1,474731445E0
1,464110625E2;2,368883610E0;-3,425787449E0;2,033582449E0
1,465110625E2;4,360850334E0;-2,167141438E0;1,888724923E0
1,466110625E2;-7,093007565E0;1,569050074E0;-9,145472050E-1
1,467110625E2;-4,480611801E0;2,114429474E0;2,394188643E-1
1,468110625E2;7,881760597E-1;2,201434612E0;-2,195672393E-1
1,469110625E2;6,073214531E0;-2,096153259E0;-2,479194403E0
1,470110625E2;1,723705292E0;2,578476906E0;1,940475941E0
1,471110625E2;4,658808708E-1;-1,561090469E0;-2,268973589E-1
1,472110625E2;3,669869900E0;-3,321347713E0;-1,750845909E-1
1,473110625E2;-2,649065495E0;-8,721103668E-1;1,120287061E0
1,474110625E2;-3,654575825E0;6,692142487E-1;3,136561871E0
1,475110625E2;-5,748237610E0;1,846219063E0;1,952573061E-1
1,476110625E2;-4,054541588E-1;1,006055832E0;-1,178495646E0
1,477110625E2;-4,054541588E-1;1,006055832E0;-1,178495646E0
1,478110625E2;-4,054541588E-1;1,006055832E0;-1,178495646E0
1,479110625E2;-4,054541588E-1;1,006055832E0;-1,178495646E0
1,480110625E2;-4,054541588E-1;1,006055832E0;-1,178495646E0
1,481110625E2;-4,054541588E-1;1,006055832E0;-1,178495646E0
1,482110625E2;-4,054541588E-1;1,006055832E0;-1,178495646E0
1,483110625E2;-4,054541588E-1;1,006055832E0;-1,178495646E0
1,484110625E2;-4,054541588E-1;1,006055832E0;-1,178495646E0
1,485110625E2;-4,054541588E-1;1,006055832E0;-1,178495646E0
1,486110625E2;-4,054541588E-1;1,006055832E0;-1,178495646E0
1,487110625E2;-4,054541588E-1;1,006055832E0;-1,178495646E0
1,488110625E2;-4,054541588E-1;1,006055832E0;-1,178495646E0
1,489110625E2;-4,054541588E-1;1,006055832E0;-1,178495646E0
1,490110625E2;-4,054541588E-1;1,006055832E0;-1,178495646E0
1,491110625E2;-4,054541588E-1;1,006055832E0;-1,178495646E0
1,492110625E2;-4,054541588E-1;1,006055832E0;-1,178495646E0
1,493110625E2;-4,054541588E-1;1,006055832E0;-1,178495646E0
1,494110625E2;-4,054541588E-1;1,006055832E0;-1,178495646E0
1,495110625E2;-4,054541588E-1;1,006055832E0;-1,178495646E0
1,496110625E2;-4,054541588E-1;1,006055832E0;-1,178495646E0
1,497110625E2;-4,054541588E-1;1,006055832E0;-1,178495646E0
1,498110625E2;-4,054541588E-1;1,006055832E0;-1,178495646E0
1,499110625E2;-2,722462177E0;-1,530655861E0;1,854331374E0
1,500110625E2;-4,839251518E0;2,034778595E0;1,234056354E0
1,501110625E2;-1,671380997E0;1,872797012E0;-1,375498652E0
1,502110625E2;-4,157929420E-1;-1,766399384E0;-1,882933378E-1
1,503110625E2;4,758704185E0;-1,604892731E0;-1,509652019E0
1,504110625E2;3,129997730E0;-8,602714539E-1;-3,329048753E-1
1,505110625E2;1,183617592E0;-1,293847084E0;-4,066640735E-1
1,506110625E2;1,044227600E0;-1,581987858E0;1,534501314E-1
1,507110625E2;-8,656883240E-1;-1,371019840E0;1,097352386E0
1,508110625E2;-1,319167614E0;-2,290046215E0;1,140234470E0
1,509110625E2;-4,301645279E0;1,089222670E0;1,831785798E0
1,510110625E2;-1,477051258E0;1,526490688E0;-1,314866424E0
1,511110625E2;-1,113605499E-1;-8,128123283E-1;-5,613982081E-1
1,512110625E2;4,077583790E0;-1,314463615E0;-9,381693006E-1
1,513110625E2;3,046527147E0;-9,902477264E-2;-6,505704522E-1
1,514110625E2;1,670949459E0;-7,887525558E-1;-8,140870929E-1
1,515110625E2;1,033951759E0;-2,128537655E0;-1,288800836E-1
1,516110625E2;-1,277518749E0;-6,996259689E-1;1,288688421E0
1,517110625E2;-1,240541935E0;-2,134177685E0;8,203668594E-1
1,518110625E2;-4,737149239E0;1,254127264E0;9,225850105E-1
1,519110625E2;-1,076895237E0;1,461970806E0;-1,164802194E0
1,520110625E2;4,163861275E-1;-4,454503059E-1;-1,663280249E0
1,521110625E2;2,385578632E0;-1,348090172E0;-1,042715549E0
1,522110625E2;2,935775995E0;7,223072052E-1;-1,749496222E0
1,523110625E2;2,049559593E0;-7,790966034E-1;-5,377886295E-1
1,524110625E2;5,516290665E-2;-1,423748016E0;-2,244078517E-1
1,525110625E2;-1,906254292E0;-1,166688442E0;-9,754964113E-1
1,526110625E2;-7,461438179E-1;-2,124923229E0;3,827029467E-1
1,527110625E2;-4,708131790E0;9,193356037E-1;2,191336155E0
1,528110625E2;-1,739653587E0;9,925818443E-1;-2,262251377E0
1,529110625E2;7,290239334E-1;4,027786255E-1;-1,329167843E0
1,530110625E2;3,684066772E0;-2,364511490E0;-8,926639557E-1
1,531110625E2;2,669380903E0;3,172540665E-1;-1,795093298E0
1,532110625E2;2,731900692E0;-7,316331863E-1;-1,670621276E0
1,533110625E2;1,168931007E0;-1,563326836E0;-3,584017754E-1
1,534110625E2;-1,913265228E0;-1,621249199E0;6,257344484E-1
1,535110625E2;-1,126788616E0;-1,916158199E0;1,340066671E0
1,536110625E2;-5,966877937E0;6,004014015E-1;2,844038010E-1
1,537110625E2;-8,019037247E-1;8,017210960E-1;-2,063644409E0
1,538110625E2;7,009506226E-2;-9,872307777E-1;-1,825694919E0
1,539110625E2;2,204843998E0;9,858322144E-2;-1,365277410E0
1,540110625E2;2,566751957E0;3,091411591E-1;-1,671390653E0
1,541110625E2;-7,880082130E-1;-6,460266113E-1;-1,119925261E0
1,542110625E2;1,102404594E0;-1,135805130E0;-2,088570595E0
1,543110625E2;-2,331466675E-1;-3,513375759E0;-1,709318161E0
1,544110625E2;-3,581335068E0;-2,183228016E0;2,085235119E-1
1,545110625E2;-4,199055672E0;2,020356894E0;-2,249092758E-1
1,546110625E2;-3,884973526E-1;-6,093072891E-2;-2,104829311E0
1,547110625E2;7,939376831E-1;-8,086776733E-2;-3,027213573E0
1,548110625E2;7,090749741E0;-3,682065964E0;-3,892869711E0
1,549110625E2;5,004692078E-2;-5,900163651E-1;-3,141436577E0
1,550110625E2;7,996501923E-1;-7,511224747E-1;-4,620551765E-1
1,551110625E2;7,996501923E-1;-7,511224747E-1;-4,620551765E-1
1,552110625E2;7,996501923E-1;-7,511224747E-1;-4,620551765E-1
1,553110625E2;7,996501923E-1;-7,511224747E-1;-4,620551765E-1
1,554110625E2;7,996501923E-1;-7,511224747E-1;-4,620551765E-1
1,555110625E2;7,996501923E-1;-7,511224747E-1;-4,620551765E-1
1,556110625E2;7,996501923E-1;-7,511224747E-1;-4,620551765E-1
1,557110625E2;7,996501923E-1;-7,511224747E-1;-4,620551765E-1
1,558110625E2;7,996501923E-1;-7,511224747E-1;-4,620551765E-1
1,559110625E2;7,996501923E-1;-7,511224747E-1;-4,620551765E-1
1,560110625E2;7,996501923E-1;-7,511224747E-1;-4,620551765E-1
1,561110625E2;7,996501923E-1;-7,511224747E-1;-4,620551765E-1
1,562110625E2;7,996501923E-1;-7,511224747E-1;-4,620551765E-1
1,563110625E2;7,996501923E-1;-7,511224747E-1;-4,620551765E-1
1,564110625E2;7,996501923E-1;-7,511224747E-1;-4,620551765E-1
1,565110625E2;7,996501923E-1;-7,511224747E-1;-4,620551765E-1
1,566110625E2;7,996501923E-1;-7,511224747E-1;-4,620551765E-1
1,567110625E2;7,996501923E-1;-7,511224747E-1;-4,620551765E-1
1,568110625E2;7,996501923E-1;-7,511224747E-1;-4,620551765E-1
1,569110625E2;7,996501923E-1;-7,511224747E-1;-4,620551765E-1
1,570110625E2;7,996501923E-1;-7,511224747E-1;-4,620551765E-1
1,571110625E2;7,996501923E-1;-7,511224747E-1;-4,620551765E-1
1,572110625E2;5,114727974E0;-5,739068985E-2;-1,080387115E0
1,573110625E2;5,114727974E0;-5,739068985E-2;-1,080387115E0
1,574110625E2;1,164412975E0;1,008375168E0;-1,632865071E0
1,575110625E2;-1,082434654E-1;-5,513734818E-1;3,129300117E0
1,576110625E2;7,345008850E-1;-1,833874702E0;1,181280255E0
1,577110625E2;8,379001617E-1;-1,255579472E0;1,469187737E-1
1,578110625E2;-1,542291164E0;-2,125799656E0;8,621454239E-1
1,579110625E2;-6,367382050E0;3,061363459E0;1,269362807E0
1,580110625E2;-2,315042496E0;6,111860275E-1;-1,748336077E0
1,581110625E2;-8,916053772E-1;-1,497275352E0;-8,739387393E-1
1,582110625E2;5,805365562E0;-2,505587578E0;5,971877575E-1
1,583110625E2;3,222100496E0;-9,431638718E-1;-3,083909512E0
1,584110625E2;1,453977108E0;7,682194710E-1;1,585629225E0
1,585110625E2;-9,458885193E-1;-1,915716171E0;4,847440720E-1
1,586110625E2;-5,264320374E-1;-2,123798370E0;1,668952703E0
1,587110625E2;-1,862793446E0;-5,284218788E-1;7,556431293E-1
1,588110625E2;-5,401910782E0;2,174892426E-1;3,164743423E0
1,589110625E2;3,664340019E0;-6,904187202E-1;-3,487365246E-1
1,590110625E2;1,216621399E-1;4,490578651E0;-5,034363866E-1
1,591110625E2;3,127519608E0;-2,564333916E0;-6,019614935E-1
1,592110625E2;2,697180510E0;-2,529124260E0;-2,452274084E0
1,593110625E2;1,307268143E-1;1,148834229E0;-9,257634878E-1
1,594110625E2;2,232322693E0;-2,015264511E0;1,190881610E0
1,595110625E2;2,979850769E-1;-1,396287441E0;1,257347107E0
1,596110625E2;-3,870267868E0;1,698529482E0;1,362036705E0
1,597110625E2;-7,304928303E0;1,720794678E0;-6,524467468E-2
1,598110625E2;-4,439210892E-2;-1,116359711E0;-3,549770117E-1
1,599110625E2;1,397849083E0;-2,655735016E0;-1,575030446E0
1,600110625E2;3,809478760E0;-3,327304840E0;5,151562095E-1
1,601110625E2;6,199154854E-1;2,071024418E0;-1,669184923E0
1,602110625E2;-1,079077721E0;-1,943134785E0;1,800501943E-1
1,603110625E2;3,560476303E0;-2,440627575E0;6,204336882E-2
1,604110625E2;-3,436615944E0;1,142811298E0;-1,714447737E-1
1,605110625E2;-4,483314991E0;-1,859960556E-1;3,547140360E-1
1,606110625E2;-5,084588051E0;2,802587748E0;-5,068477988E-1
1,607110625E2;1,473283768E-2;2,933550358E0;-1,039977074E0
1,608110625E2;4,980106354E-1;-5,066303253E0;-1,766517162E0
1,609110625E2;-4,409852028E-1;-1,319376945E0;-1,854842424E0
1,610110625E2;1,581307888E0;-2,598035812E0;8,465116024E-1
1,611110625E2;-8,108892441E-1;-6,362409592E-1;-5,350739360E-1
1,612110625E2;3,274987221E0;-5,423841000E0;-2,387669563E0
1,613110625E2;-6,456593513E0;2,279801846E0;3,978894711E0
1,614110625E2;7,457160950E-2;3,524013758E0;-8,862960339E-1
1,615110625E2;1,724718094E0;-5,218316078E0;-3,119144440E0
1,616110625E2;1,043254375E0;1,826280117E0;2,972567976E-1
1,617110625E2;2,185114622E0;2,530874252E0;-8,824554682E-1
1,618110625E2;7,655191422E-2;-8,286294937E-1;-3,766441584E0
1,619110625E2;-3,807120323E-1;-2,416992188E-2;4,091360867E-1
1,620110625E2;-3,751397133E-1;-3,968381882E-2;2,334350348E-2
1,621110625E2;-5,897498131E-1;4,217810631E-1;7,370027304E-1
1,622110625E2;-5,962436199E0;-1,914049625E0;-1,335127354E0
1,623110625E2;-7,453715324E0;6,955068111E0;1,979772091E0
1,624110625E2;1,655910015E0;1,386473656E0;-1,085029125E0
1,625110625E2;1,655910015E0;1,386473656E0;-1,085029125E0
1,626110625E2;1,655910015E0;1,386473656E0;-1,085029125E0
1,627110625E2;1,655910015E0;1,386473656E0;-1,085029125E0
1,628110625E2;1,655910015E0;1,386473656E0;-1,085029125E0
1,629110625E2;1,655910015E0;1,386473656E0;-1,085029125E0
1,630110625E2;1,655910015E0;1,386473656E0;-1,085029125E0
1,631110625E2;1,655910015E0;1,386473656E0;-1,085029125E0
1,632110625E2;1,655910015E0;1,386473656E0;-1,085029125E0
1,633110625E2;1,655910015E0;1,386473656E0;-1,085029125E0
1,634110625E2;1,655910015E0;1,386473656E0;-1,085029125E0
1,635110625E2;1,655910015E0;1,386473656E0;-1,085029125E0
1,636110625E2;1,655910015E0;1,386473656E0;-1,085029125E0
1,637110625E2;1,655910015E0;1,386473656E0;-1,085029125E0
1,638110625E2;1,655910015E0;1,386473656E0;-1,085029125E0
1,639110625E2;1,655910015E0;1,386473656E0;-1,085029125E0
1,640110625E2;1,655910015E0;1,386473656E0;-1,085029125E0
1,641110625E2;1,655910015E0;1,386473656E0;-1,085029125E0
1,642110625E2;1,655910015E0;1,386473656E0;-1,085029125E0
1,643110625E2;1,655910015E0;1,386473656E0;-1,085029125E0
1,644110625E2;1,655910015E0;1,386473656E0;-1,085029125E0
1,645110625E2;1,655910015E0;1,386473656E0;-1,085029125E0
1,646110625E2;-8,239254951E-1;-3,925793648E0;1,688985825E0
1,647110625E2;-8,239254951E-1;-3,925793648E0;1,688985825E0
1,648110625E2;-8,239254951E-1;-3,925793648E0;1,688985825E0
1,649110625E2;2,100157738E-1;-2,609191418E0;-2,620438337E-1
1,650110625E2;4,649259090E0;-7,014312744E-1;3,573052883E-1
1,651110625E2;1,887300014E0;-7,807550430E-1;3,337776184E0
1,652110625E2;-1,195287704E-2;-3,988800049E-1;-2,812564373E-2
1,653110625E2;1,843679905E0;-3,467356205E0;-1,862182975E0
1,654110625E2;2,277698517E-1;-3,580853462E0;3,371197462E0
1,655110625E2;-9,039636612E0;4,932138443E0;2,155055761E0
1,656110625E2;-2,694503784E0;5,413007736E-2;1,882312298E-1
1,657110625E2;4,880266190E-1;-1,215281487E-1;3,122334480E-1
1,658110625E2;5,077751160E0;3,621702194E-1;2,510365248E0
1,659110625E2;6,936022758E0;-2,292111397E0;-2,420518398E0
1,660110625E2;-5,048508644E-1;1,620445251E-1;-1,123923659E0
1,661110625E2;2,545761108E0;-2,305362701E0;1,080609918E0
1,662110625E2;7,689738274E-1;-5,178664207E0;8,626967669E-1
1,663110625E2;-6,406279564E0;2,292351007E0;4,751811028E0
1,664110625E2;-3,299217224E0;2,044909716E0;7,847691774E-1
1,665110625E2;-2,166020393E0;1,201301575E0;3,437999487E-1
1,666110625E2;4,419678211E0;-2,864103317E0;-2,901583910E-1
1,667110625E2;4,532165527E0;-9,297084808E-1;1,268963218E-1
1,668110625E2;2,253173828E0;6,883010864E-1;2,604906082E0
1,669110625E2;-2,393491745E0;1,142342567E0;-6,961644888E-1
1,670110625E2;1,711659431E-1;-4,058037281E0;-1,109510422E0
1,671110625E2;-3,998525143E0;-7,381868362E-2;8,260507584E-1
1,672110625E2;-4,660977364E0;-3,508080959E0;3,458960056E-1
1,673110625E2;-1,759852886E0;8,753943443E-1;1,001197100E0
1,674110625E2;3,102662086E0;-5,059890747E-1;-3,776728511E-1
1,675110625E2;6,763947964E0;-3,994173050E0;-6,180818081E-1
1,676110625E2;4,189739227E0;1,964329243E0;-1,322944999E0
1,677110625E2;2,481589317E-1;-2,278511047E0;9,032094479E-2
1,678110625E2;4,208009243E0;-1,852719307E0;-7,943570614E-1
1,679110625E2;-2,780630589E0;-1,730385303E0;2,049576759E0
1,680110625E2;-4,671630383E0;8,971467018E-1;2,686208010E0
1,681110625E2;-4,477223396E0;3,487370968E0;-8,668075800E-1
1,682110625E2;4,131201267E0;-3,847048283E0;-7,678049803E-1
1,683110625E2;5,250105381E0;6,965723038E-1;6,500438452E-1
1,684110625E2;2,190654516E0;7,884626389E-1;6,010087729E-1
1,685110625E2;5,819950104E-1;-2,733122826E0;-2,120462656E-1
1,686110625E2;3,669362545E0;-4,183410645E0;1,075983286E0
1,687110625E2;-1,570431232E0;-3,498487473E-1;1,761354566E0
1,688110625E2;-4,994634628E0;1,589477777E0;1,952419162E0
1,689110625E2;-5,242661476E0;4,847955704E0;-4,459393024E-2
1,690110625E2;9,323468208E-1;-1,093411446E0;-1,376128078E0
1,691110625E2;4,448330879E0;-2,946333885E0;-8,011759520E-1
1,692110625E2;2,177719116E0;2,721090317E-1;6,511076689E-1
1,693110625E2;6,580142975E-1;-1,205295563E0;2,296411991E-2
1,694110625E2;3,897231579E0;-4,019415379E0;-1,958522797E-1
1,695110625E2;-2,606161594E0;-3,622160435E0;1,061972260E0
1,696110625E2;-2,403902531E0;1,492029667E0;4,299346924E0
1,697110625E2;-1,303291798E0;-2,070657730E0;-1,535233140E0
1,698110625E2;-6,947960854E-1;4,885903358E0;-7,711908221E-1
1,699110625E2;2,547422886E0;-1,316200256E0;-1,910743237E0
1,700110625E2;2,547422886E0;-1,316200256E0;-1,910743237E0
1,701110625E2;2,547422886E0;-1,316200256E0;-1,910743237E0
1,702110625E2;2,547422886E0;-1,316200256E0;-1,910743237E0
1,703110625E2;2,547422886E0;-1,316200256E0;-1,910743237E0
1,704110625E2;2,547422886E0;-1,316200256E0;-1,910743237E0
1,705110625E2;2,547422886E0;-1,316200256E0;-1,910743237E0
1,706110625E2;2,547422886E0;-1,316200256E0;-1,910743237E0
1,707110625E2;2,547422886E0;-1,316200256E0;-1,910743237E0
1,708110625E2;2,547422886E0;-1,316200256E0;-1,910743237E0
1,709110625E2;2,547422886E0;-1,316200256E0;-1,910743237E0
1,710110625E2;2,547422886E0;-1,316200256E0;-1,910743237E0
1,711110625E2;2,547422886E0;-1,316200256E0;-1,910743237E0
1,712110625E2;2,547422886E0;-1,316200256E0;-1,910743237E0
1,713110625E2;2,547422886E0;-1,316200256E0;-1,910743237E0
1,714110625E2;2,547422886E0;-1,316200256E0;-1,910743237E0
1,715110625E2;2,547422886E0;-1,316200256E0;-1,910743237E0
1,716110625E2;2,547422886E0;-1,316200256E0;-1,910743237E0
1,717110625E2;2,547422886E0;-1,316200256E0;-1,910743237E0
1,718110625E2;2,547422886E0;-1,316200256E0;-1,910743237E0
1,719110625E2;-3,804823875E0;-4,122619629E-1;1,119273543E0
1,720110625E2;-3,804823875E0;-4,122619629E-1;1,119273543E0
1,721110625E2;-3,804823875E0;-4,122619629E-1;1,119273543E0
1,722110625E2;3,016958237E-1;-1,857062340E0;-1,306349635E-1
1,723110625E2;5,231543541E0;-5,493106842E-1;-1,519110441E0
1,724110625E2;1,382164001E0;4,265584946E-1;9,726345539E-2
1,725110625E2;-1,524208546E0;-2,708991528E0;5,549842715E-1
1,726110625E2;1,330833435E-1;-1,872066498E0;-3,749004602E-1
1,727110625E2;-1,652209759E0;-2,317403793E0;4,183032513E-1
1,728110625E2;-4,786602974E0;1,692610264E0;1,605438828E0
1,729110625E2;-3,122676373E0;3,724069834E0;-1,049546242E0
1,730110625E2;3,282793999E0;-6,244209766E0;-2,026636004E-1
1,731110625E2;3,682137966E0;6,400585175E-1;-6,219930053E-1
1,732110625E2;3,857091427E0;-3,246326447E-1;-2,988994122E-2
1,733110625E2;7,856659889E-1;-2,973401070E0;2,268904686E0
1,734110625E2;2,509224892E0;-3,047992229E0;-1,128833055E0
1,735110625E2;-2,522472858E0;-1,514621735E0;2,758885860E0
1,736110625E2;-3,249265194E0;-1,109903812E0;2,018152237E0
1,737110625E2;-5,997204781E0;4,150333881E0;1,888439417E0
1,738110625E2;2,883153915E0;-2,498679638E0;-1,397634983E0
1,739110625E2;3,337428570E0;-9,987831116E-3;8,405932188E-1
1,740110625E2;1,599151134E0;-1,126699448E-1;2,760640621E0
1,741110625E2;2,995100021E-1;6,728839874E-2;3,024765253E-1
1,742110625E2;2,760324001E0;-1,884715557E0;-5,200879574E-1
1,743110625E2;7,091522217E-2;-2,333875179E0;1,155795455E0
1,744110625E2;-7,702852726E0;1,356230021E0;2,140313148E0
1,745110625E2;-7,393180370E0;2,139230728E0;1,666700959E0
1,746110625E2;2,505941391E0;-1,046928883E0;-1,040816307E-3
1,747110625E2;2,311935425E-1;-3,959894180E-1;6,408382654E-1
1,748110625E2;5,372505665E0;-5,040607452E-1;5,067268610E-1
1,749110625E2;3,266884327E0;-1,162378311E0;9,255230427E-2
1,750110625E2;-8,215003014E-1;-1,382937431E0;4,335029125E-1
1,751110625E2;1,093079567E0;-2,381008625E0;9,271318913E-1
1,752110625E2;-2,992335320E0;-3,975534439E-2;3,559689522E0
1,753110625E2;-4,174867630E0;7,314634323E-2;1,903370023E0
1,754110625E2;-7,328772545E-1;1,031383991E0;1,206332803E0
1,755110625E2;4,847864628E0;-1,232522964E0;6,506370306E-1
1,756110625E2;4,576116562E0;2,981252670E-1;1,140550375E0
1,757110625E2;1,410753489E0;1,758901119E0;3,096113443E0
1,758110625E2;5,022344589E-1;-9,946346283E-3;2,455525875E0
1,759110625E2;3,139349461E0;-5,979054928E0;2,433783531E0
1,760110625E2;-2,515903473E0;-3,394854546E0;3,040552139E0
1,761110625E2;-3,270792007E0;-1,487276793E0;1,269935369E0
1,762110625E2;-1,198042870E0;-1,486066341E0;-2,379812717E0
1,763110625E2;-3,484278440E0;4,134547234E0;3,137821674E0
1,764110625E2;2,909951210E0;-1,887398720E0;6,277012825E-1
1,765110625E2;-8,171975613E-1;1,845561981E0;4,456155300E0
1,766110625E2;2,963619232E0;5,442471504E-1;-3,298037767E0
1,767110625E2;5,844902992E-1;-2,319835663E0;2,465296030E0
1,768110625E2;-9,748268127E-2;-1,377467155E0;3,622356653E0
1,769110625E2;-2,355543613E0;1,656637192E-1;4,207892418E0
1,770110625E2;-2,735354900E0;-4,971590042E-1;6,368925095E0
1,771110625E2;-1,230421066E-1;4,093647003E-3;2,887187004E-1
1,772110625E2;-1,632378578E0;2,162600517E0;-5,124316216E-1
1,773110625E2;1,670635223E0;-2,408757210E0;1,090659380E0
1,774110625E2;1,670635223E0;-2,408757210E0;1,090659380E0
1,775110625E2;1,670635223E0;-2,408757210E0;1,090659380E0
1,776110625E2;1,670635223E0;-2,408757210E0;1,090659380E0
1,777110625E2;1,670635223E0;-2,408757210E0;1,090659380E0
1,778110625E2;1,670635223E0;-2,408757210E0;1,090659380E0
1,779110625E2;1,670635223E0;-2,408757210E0;1,090659380E0
1,780110625E2;1,670635223E0;-2,408757210E0;1,090659380E0
1,781110625E2;1,670635223E0;-2,408757210E0;1,090659380E0
1,782110625E2;1,670635223E0;-2,408757210E0;1,090659380E0
1,783110625E2;1,670635223E0;-2,408757210E0;1,090659380E0
1,784110625E2;1,670635223E0;-2,408757210E0;1,090659380E0
1,785110625E2;1,670635223E0;-2,408757210E0;1,090659380E0
1,786110625E2;1,670635223E0;-2,408757210E0;1,090659380E0
1,787110625E2;1,670635223E0;-2,408757210E0;1,090659380E0
1,788110625E2;1,670635223E0;-2,408757210E0;1,090659380E0
1,789110625E2;1,670635223E0;-2,408757210E0;1,090659380E0
1,790110625E2;1,670635223E0;-2,408757210E0;1,090659380E0
1,791110625E2;1,670635223E0;-2,408757210E0;1,090659380E0
1,792110625E2;-2,411060333E-1;-3,956126213E0;-1,176019192E0
1,793110625E2;-2,411060333E-1;-3,956126213E0;-1,176019192E0
1,794110625E2;-2,411060333E-1;-3,956126213E0;-1,176019192E0
1,795110625E2;-4,225420952E0;-1,521396637E-1;3,844147682E0
1,796110625E2;-4,225420952E0;-1,521396637E-1;3,844147682E0
1,797110625E2;1,581461906E0;-1,026725769E0;-2,319368124E-1
1,798110625E2;2,584035873E0;-2,650851250E0;2,827905416E-1
1,799110625E2;4,842294693E0;-1,543907166E0;-2,361817360E0
1,800110625E2;2,914274693E0;-9,088401794E-1;1,631906271E0
1,801110625E2;-1,413376331E0;-1,215084076E0;9,688260555E-1
1,802110625E2;2,564156055E0;-3,462798119E0;-4,944396019E-1
1,803110625E2;-6,484055519E-1;-3,442394733E0;-1,265602112E-1
1,804110625E2;-6,260842323E0;2,085433245E0;-6,460428238E-3
1,805110625E2;-1,688024998E0;3,908106565E0;-1,816612482E0
1,806110625E2;2,781875610E0;-1,066636086E0;-1,295025349E0
1,807110625E2;2,186351299E0;1,015185356E0;-8,741733432E-2
1,808110625E2;3,797853947E0;-8,468322754E-1;-5,817985535E-1
1,809110625E2;1,141992092E0;-2,067409515E0;4,068620801E-1
1,810110625E2;6,987881660E-1;-2,634270668E0;-6,826740503E-1
1,811110625E2;-1,562227249E0;-1,130177975E0;8,288438320E-1
1,812110625E2;-1,807245255E0;-7,628760338E-1;1,932834387E0
1,813110625E2;-4,706007004E0;1,199374676E0;2,873241425E0
1,814110625E2;-2,912625790E0;8,988089561E-1;1,033843517E0
1,815110625E2;4,802773476E0;-4,230004311E0;-1,402470469E0
1,816110625E2;5,722187042E0;-1,018925667E0;-1,553176165E0
1,817110625E2;1,440176964E0;-4,015254974E-1;9,234505892E-2
1,818110625E2;-5,662336349E-1;-4,752333164E0;4,834782481E-1
1,819110625E2;-3,399672508E-1;-7,359642982E-1;7,738054991E-1
1,820110625E2;-1,591200352E0;-1,622911930E0;2,158844471E-1
1,821110625E2;-5,692172050E0;-4,200601578E-1;1,897234917E-1
1,822110625E2;-7,038317680E0;4,706488132E0;8,131153584E-1
1,823110625E2;1,419006824E0;-2,246705532E0;-1,567675710E0
1,824110625E2;4,004856586E0;-9,785203934E-1;-1,493048668E-2
1,825110625E2;3,552195072E0;-3,095203400E0;1,630319953E-1
1,826110625E2;8,508992195E-1;-1,877880096E-2;-1,356750250E0
1,827110625E2;2,905668259E0;-2,700645447E0;-1,530384898E0
1,828110625E2;3,040490150E-1;-4,187933922E0;2,645211220E-1
1,829110625E2;-4,997495651E0;-1,579770088E0;2,100162268E0
1,830110625E2;-3,778934479E0;-4,984998703E-1;-2,144398689E-1
1,831110625E2;-9,637546539E-1;2,199390888E0;-6,568706632E-1
1,832110625E2;1,385703087E0;1,253547668E-1;-1,515646815E0
1,833110625E2;2,744872570E0;1,811542511E-1;-2,486999035E-1
1,834110625E2;1,832341194E0;-5,777091980E-1;2,000185013E0
1,835110625E2;-1,501876354E0;-1,906332016E0;6,774411201E-1
1,836110625E2;1,633718491E0;-2,008752346E0;4,459940195E-1
1,837110625E2;-2,578802109E-1;-2,302994251E0;1,252927065E0
1,838110625E2;-8,018112183E0;3,048671722E0;1,937744379E0
1,839110625E2;-5,066038609E0;2,167322159E0;-1,596800447E0
1,840110625E2;-2,739019394E-1;-1,453190327E0;1,355651498E0
1,841110625E2;5,349112034E0;-2,165191650E0;-8,594603539E-1
1,842110625E2;3,298588276E0;-1,611931801E0;-1,087579131E0
1,843110625E2;5,190129280E-1;4,128923416E-1;2,376950979E-1
1,844110625E2;3,423302174E0;-4,082986355E0;7,754429579E-1
1,845110625E2;-8,760132790E-1;-1,208164215E0;1,659414053E0
1,846110625E2;-3,196843147E0;-1,178722858E0;1,561313987E0
1,847110625E2;-5,936945915E0;-7,743945122E-1;2,478852272E-1
1,848110625E2;-5,936945915E0;-7,743945122E-1;2,478852272E-1
1,849110625E2;-5,936945915E0;-7,743945122E-1;2,478852272E-1
1,850110625E2;-5,936945915E0;-7,743945122E-1;2,478852272E-1
1,851110625E2;-5,936945915E0;-7,743945122E-1;2,478852272E-1
1,852110625E2;-5,936945915E0;-7,743945122E-1;2,478852272E-1
1,853110625E2;-5,936945915E0;-7,743945122E-1;2,478852272E-1
1,854110625E2;-5,936945915E0;-7,743945122E-1;2,478852272E-1
1,855110625E2;-5,936945915E0;-7,743945122E-1;2,478852272E-1
1,856110625E2;-5,936945915E0;-7,743945122E-1;2,478852272E-1
1,857110625E2;-5,936945915E0;-7,743945122E-1;2,478852272E-1
1,858110625E2;-5,936945915E0;-7,743945122E-1;2,478852272E-1
1,859110625E2;-5,936945915E0;-7,743945122E-1;2,478852272E-1
1,860110625E2;-5,936945915E0;-7,743945122E-1;2,478852272E-1
1,861110625E2;-5,936945915E0;-7,743945122E-1;2,478852272E-1
1,862110625E2;-5,936945915E0;-7,743945122E-1;2,478852272E-1
1,863110625E2;-5,936945915E0;-7,743945122E-1;2,478852272E-1
1,864110625E2;-5,936945915E0;-7,743945122E-1;2,478852272E-1
1,865110625E2;-5,936945915E0;-7,743945122E-1;2,478852272E-1
1,866110625E2;-5,936945915E0;-7,743945122E-1;2,478852272E-1
1,867110625E2;-5,936945915E0;-7,743945122E-1;2,478852272E-1
1,868110625E2;-5,936945915E0;-7,743945122E-1;2,478852272E-1
1,869110625E2;-2,078160763E0;-1,111931324E0;-3,727498055E-1
1,870110625E2;-2,078160763E0;-1,111931324E0;-3,727498055E-1
1,871110625E2;-7,574043274E0;4,005805969E0;8,459146023E-1
1,872110625E2;-7,574043274E0;4,005805969E0;8,459146023E-1
1,873110625E2;2,353201389E0;-6,271238327E0;-6,497572064E-1
1,874110625E2;7,449337482E0;1,586358547E0;-2,048305273E0
1,875110625E2;4,965093613E0;-3,330565453E0;-3,556478500E0
1,876110625E2;-4,174919605E0;-1,861061573E0;1,153216660E-1
1,877110625E2;1,388568401E0;-4,174918175E0;2,448880672E-1
1,878110625E2;-4,140672207E0;1,349006653E0;2,268035889E0
1,879110625E2;-4,658550262E0;1,858065605E0;1,903328657E0
1,880110625E2;-2,863705635E0;1,278070450E0;1,322548687E-1
1,881110625E2;-8,339881897E-4;-1,307917595E0;-5,927346945E-1
1,882110625E2;6,901774406E0;-5,618882179E0;-1,897318602E0
1,883110625E2;4,187472343E0;5,146141052E-1;1,011182904E0
1,884110625E2;-3,547310829E-1;-4,457378387E-1;-7,608525753E-1
1,885110625E2;1,237749577E0;-4,893249035E0;-1,282043934E0
1,886110625E2;-3,915190697E-1;-1,270900726E0;1,418774366E0
1,887110625E2;-2,616241932E0;-2,422313690E0;-4,742877483E-1
1,888110625E2;-5,323710442E0;2,108421564E0;4,263077974E-1
1,889110625E2;4,785442352E-1;-2,597971439E0;3,852818012E-1
1,890110625E2;-1,457661152E0;8,657693863E-1;-3,588606417E-1
1,891110625E2;6,682526588E0;-4,712298393E0;-1,525922060E0
1,892110625E2;2,269290686E0;5,808057785E-1;-9,059536457E-1
1,893110625E2;1,158360481E0;1,954972744E0;-2,071902752E-1
1,894110625E2;-4,139693737E0;2,507087708E0;-4,311066866E-1
1,895110625E2;-2,736900330E0;-3,251207352E0;-2,703992844E0
1,896110625E2;-4,820490837E0;3,644849539E0;2,461976290E0
1,897110625E2;1,430763245E0;-2,625062466E0;2,104506016E0
1,898110625E2;-4,699563980E0;2,127996206E0;-1,606484890E0
1,899110625E2;-2,362770557E0;1,405768871E0;2,411206961E-1
1,900110625E2;2,184618473E0;-2,488071442E0;-9,431021810E-1
1,901110625E2;4,297483921E0;-4,905595779E-1;-6,728276610E-1
1,902110625E2;3,963473082E0;-7,006521225E-1;-1,010366082E0
1,903110625E2;-1,211113453E0;-2,122879028E-3;-3,633875251E-1
1,904110625E2;7,432808876E-1;-1,488965988E0;2,580974698E-1
1,905110625E2;1,383398533E0;-1,790948391E0;9,404307604E-1
1,906110625E2;-1,719546318E0;-5,915989876E-1;8,666180372E-1
1,907110625E2;-3,895057678E0;1,373651505E0;1,240732551E0
1,908110625E2;-2,782877922E0;1,456778049E0;-4,441450834E-1
1,909110625E2;-2,977371216E-1;-7,152709961E-1;2,412495017E-1
1,910110625E2;3,058453560E0;-9,780340195E-1;-4,161611795E-1
1,911110625E2;2,618499279E0;6,144914627E-1;-1,676091909E0
1,912110625E2;2,211683273E0;1,393556595E-1;-8,167988062E-1
1,913110625E2;-1,260571957E0;-1,127315521E0;2,449586391E-1
1,914110625E2;1,063715935E0;-1,737608910E0;-8,420062065E-1
1,915110625E2;-6,204771996E-1;-1,014137745E0;1,791061163E0
1,916110625E2;-4,886209011E0;1,711280346E0;9,653333426E-1
1,917110625E2;-4,999010086E0;3,331020117E0;-3,631985188E-1
1,918110625E2;6,511259079E-2;-3,004083633E-1;-6,314749122E-1
1,919110625E2;3,808523178E0;-2,263652802E0;-6,118587255E-1
1,920110625E2;4,630562782E0;-6,022710800E-1;-1,296734452E0
1,921110625E2;2,671957016E0;5,899639130E-1;4,860657454E-2
1,922110625E2;-1,711965084E0;-1,519427299E0;3,797394037E-1
1,923110625E2;-1,711965084E0;-1,519427299E0;3,797394037E-1
1,924110625E2;-1,711965084E0;-1,519427299E0;3,797394037E-1
1,925110625E2;-1,711965084E0;-1,519427299E0;3,797394037E-1
1,926110625E2;-1,711965084E0;-1,519427299E0;3,797394037E-1
1,927110625E2;-1,711965084E0;-1,519427299E0;3,797394037E-1
1,928110625E2;-1,711965084E0;-1,519427299E0;3,797394037E-1
1,929110625E2;-1,711965084E0;-1,519427299E0;3,797394037E-1
1,930110625E2;-1,711965084E0;-1,519427299E0;3,797394037E-1
1,931110625E2;-1,711965084E0;-1,519427299E0;3,797394037E-1
1,932110625E2;-1,711965084E0;-1,519427299E0;3,797394037E-1
1,933110625E2;-1,711965084E0;-1,519427299E0;3,797394037E-1
1,934110625E2;-1,711965084E0;-1,519427299E0;3,797394037E-1
1,935110625E2;-1,711965084E0;-1,519427299E0;3,797394037E-1
1,936110625E2;-1,711965084E0;-1,519427299E0;3,797394037E-1
1,937110625E2;-1,711965084E0;-1,519427299E0;3,797394037E-1
1,938110625E2;-1,711965084E0;-1,519427299E0;3,797394037E-1
1,939110625E2;-1,711965084E0;-1,519427299E0;3,797394037E-1
1,940110625E2;-1,711965084E0;-1,519427299E0;3,797394037E-1
1,941110625E2;-1,711965084E0;-1,519427299E0;3,797394037E-1
1,942110625E2;-1,711965084E0;-1,519427299E0;3,797394037E-1
1,943110625E2;-1,711965084E0;-1,519427299E0;3,797394037E-1
1,944110625E2;-1,711965084E0;-1,519427299E0;3,797394037E-1
1,945110625E2;3,724807739E0;2,964458466E-1;-2,550268173E-1
1,946110625E2;5,501456261E-1;-1,474441528E0;8,769595623E-2
1,947110625E2;4,168181419E-1;-1,700925350E0;-1,814477444E-1
1,948110625E2;-2,768652916E0;-7,119259834E-1;1,291098595E-1
1,949110625E2;-4,490622520E0;1,566879272E0;1,276397586E0
1,950110625E2;-4,487343311E0;3,250970125E0;-4,884148836E-1
1,951110625E2;5,380926132E-1;-6,765356064E-1;7,231605053E-2
1,952110625E2;3,623796463E0;-6,440544128E-1;5,983765125E-1
1,953110625E2;3,981232882E0;3,417901993E-1;-4,422215223E-1
1,954110625E2;3,150943279E0;-5,969047546E-2;-1,985698700E0
1,955110625E2;-4,107909203E-1;-1,651060581E0;7,840234637E-1
1,956110625E2;-3,872489929E-2;-1,158731461E0;9,525914192E-1
1,957110625E2;-6,318664551E-1;-1,434864044E0;-1,350739002E-1
1,958110625E2;-4,977437019E0;2,282581568E0;1,485755920E0
1,959110625E2;-2,602762699E0;2,724469423E0;1,173514128E-1
1,960110625E2;7,262101173E-1;-1,147359848E0;-3,757298589E-1
1,961110625E2;5,837401867E0;-2,553599358E0;-3,371024728E-1
1,962110625E2;3,343559504E0;-2,059740067E0;-5,338815451E-1
1,963110625E2;1,665665627E0;2,865552902E-1;3,155381680E-1
1,964110625E2;-6,792979240E-1;-1,407667637E0;9,175357819E-1
1,965110625E2;-1,383915901E0;3,546237946E-1;3,518741846E0
1,966110625E2;3,767547607E0;2,395806551E0;-8,550217152E-1
1,967110625E2;-4,569496632E0;5,037513733E0;2,703597546E-1
1,968110625E2;-8,201737404E-1;2,601587057E0;-3,939808607E-1
1,969110625E2;1,605904579E0;-4,534937859E0;-4,770444632E-1
1,970110625E2;4,877868652E0;-1,119079590E0;4,585492611E-1
1,971110625E2;3,632572651E0;-1,761141777E0;-2,260672331E0
1,972110625E2;-1,445681095E0;-1,306785583E0;7,289293408E-1
1,973110625E2;1,098491192E0;-1,291880131E0;2,799717188E-1
1,974110625E2;-4,285621643E-2;-2,144674778E0;4,985005856E-1
1,975110625E2;-5,383996964E0;2,123260021E0;1,827673674E0
1,976110625E2;-5,330598831E0;2,992174625E0;7,131875753E-1
1,977110625E2;1,016265869E0;-1,182023525E0;-3,050913811E-1
1,978110625E2;4,346536160E0;-1,912128448E0;-1,189082861E-1
1,979110625E2;3,757135868E0;3,210191727E-1;-1,468536377E0
1,980110625E2;1,993168831E0;-4,710149765E-1;-6,210897565E-1
1,981110625E2;2,688503265E-1;-1,922301769E0;-7,789865732E-1
1,982110625E2;-1,365767479E0;-3,745423794E0;-1,762447357E-1
1,983110625E2;-3,223879814E0;-2,188286304E0;2,642639875E0
1,984110625E2;-5,578950882E0;3,409805298E0;1,879179358E0
1,985110625E2;-2,302591801E0;1,904656887E0;-2,186273932E-1
1,986110625E2;3,868163586E0;-4,217553139E0;7,003214955E-1
1,987110625E2;5,519823074E0;-7,065658569E-1;2,457873225E-1
1,988110625E2;3,010981083E0;-1,280708313E-1;8,337252736E-1
1,989110625E2;-3,425979614E-1;-1,349338531E0;7,494399548E-1
1,990110625E2;2,078715801E0;-1,788213253E0;-5,440270901E-2
1,991110625E2;-1,132748127E0;-3,406830311E0;2,358064651E-1
1,992110625E2;-6,027059555E0;4,377529621E-1;1,589835286E0
1,993110625E2;-2,885133743E0;1,829714298E0;-8,686496019E-1
1,994110625E2;1,706056595E-1;-2,632545471E0;-3,257660866E-1
1,995110625E2;5,683159828E0;-4,856653214E0;-1,203906059E0
1,996110625E2;2,960195541E0;-1,051161766E0;3,393505335E0
1,997110625E2;2,960195541E0;-1,051161766E0;3,393505335E0
1,998110625E2;2,960195541E0;-1,051161766E0;3,393505335E0
1,999110625E2;2,960195541E0;-1,051161766E0;3,393505335E0
2,000110625E2;2,960195541E0;-1,051161766E0;3,393505335E0
2,001110625E2;2,960195541E0;-1,051161766E0;3,393505335E0
2,002110625E2;2,960195541E0;-1,051161766E0;3,393505335E0
2,003110625E2;2,960195541E0;-1,051161766E0;3,393505335E0
2,004110625E2;2,960195541E0;-1,051161766E0;3,393505335E0
2,005110625E2;2,960195541E0;-1,051161766E0;3,393505335E0
2,006110625E2;2,960195541E0;-1,051161766E0;3,393505335E0
2,007110625E2;2,960195541E0;-1,051161766E0;3,393505335E0
2,008110625E2;2,960195541E0;-1,051161766E0;3,393505335E0
2,009110625E2;2,960195541E0;-1,051161766E0;3,393505335E0
2,010110625E2;2,960195541E0;-1,051161766E0;3,393505335E0
2,011110625E2;2,960195541E0;-1,051161766E0;3,393505335E0
2,012110625E2;2,960195541E0;-1,051161766E0;3,393505335E0
2,013110625E2;2,960195541E0;-1,051161766E0;3,393505335E0
2,014110625E2;2,960195541E0;-1,051161766E0;3,393505335E0
2,015110625E2;2,960195541E0;-1,051161766E0;3,393505335E0
2,016110625E2;2,960195541E0;-1,051161766E0;3,393505335E0
2,017110625E2;-2,338562012E-1;3,471159935E-1;-1,787387371E0
2,018110625E2;-2,338562012E-1;3,471159935E-1;-1,787387371E0
2,019110625E2;-2,338562012E-1;3,471159935E-1;-1,787387371E0
2,020110625E2;2,803055286E0;-1,287717819E-1;2,051017284E-1
2,021110625E2;-1,354713917E0;-2,768020630E-1;-4,031676054E-1
2,022110625E2;2,011387348E0;-3,473204136E0;-2,277589321E0
2,023110625E2;-3,574718475E0;-1,304334164E0;2,111707687E0
2,024110625E2;-4,662421227E0;-1,473650932E0;1,312912226E0
2,025110625E2;-5,360769272E0;1,136084795E0;1,453840494E0
2,026110625E2;6,459236145E-2;-1,755137444E-1;4,938253164E-1
2,027110625E2;2,842626095E0;-3,752860069E0;-5,477061272E-1
2,028110625E2;1,474076748E0;1,103515625E-1;2,603775501E0
2,029110625E2;-5,151696205E-1;1,801915646E0;4,057710171E-1
2,030110625E2;2,326245308E-1;-2,578073025E0;-2,484607697E-1
2,031110625E2;-1,056723595E0;-1,971673965E0;1,481997967E-1
2,032110625E2;-2,435555935E0;3,937208652E-1;2,047702551E0
