"Time (s)";"Linear Acceleration x (m/s^2)";"Linear Acceleration y (m/s^2)";"Linear Acceleration z (m/s^2)"
1,175458330E-1;-3,121869564E-1;-1,617374182E0;1,757264137E0
2,175458330E-1;-6,015691757E-1;1,541707993E0;-3,465203285E0
3,175458330E-1;8,112012148E-1;1,417639256E-1;-1,234647751E0
4,175458330E-1;6,034351587E-1;5,446444154E-1;-7,316751480E-1
5,175458330E-1;-4,101274490E0;4,501931190E0;-4,023852348E0
6,175458330E-1;3,346267223E0;-4,921896935E0;-4,986619949E-1
7,175458330E-1;-1,478307247E0;-4,688394547E0;-3,404105186E0
8,175458330E-1;3,761228561E0;-4,313310623E0;4,295114040E0
9,175458330E-1;1,443644714E1;-5,754556656E-1;9,931221962E0
1,017545833E0;9,753434181E0;4,804117203E0;-1,487577438E0
1,117545833E0;6,543030739E-1;1,073169231E0;-3,943424225E0
1,217545833E0;1,344376564E0;1,154158211E1;-3,707756996E0
1,317545833E0;-4,793785095E0;-3,194514751E0;3,279614449E0
1,417545833E0;2,680313587E0;-5,396032333E-2;4,357904434E0
1,517545833E0;2,243143082E0;-8,582949638E-1;-2,330419302E0
1,617545833E0;-2,697649717E0;4,533758163E-1;-3,178709745E0
1,717545833E0;-2,565697432E0;1,279278755E0;1,399604917E0
1,817545833E0;1,164455891E0;9,018983841E-1;-2,952776551E-1
1,917545833E0;-7,311956882E-1;4,274822235E0;3,381946981E-1
2,017545833E0;9,828159809E-1;5,457845688E0;2,839960814E0
2,117545833E0;1,995964050E-1;1,807064533E0;2,597429276E0
2,217545833E0;-6,098713875E-1;-7,580862045E-1;1,348807812E0
2,317545833E0;-1,794810772E0;5,420169830E-1;4,144549847E0
2,417545833E0;-1,421221495E0;-8,951206207E-1;3,040581942E0
2,517545833E0;4,324160576E0;-2,401403427E0;-3,117627382E0
2,617545833E0;-3,655483246E0;-4,159768105E0;-3,669826746E0
2,717545833E0;1,256793976E0;-5,587800503E0;-1,100312233E0
2,817545833E0;4,061267853E0;-6,301999092E-2;-1,055123806E0
2,917545833E0;2,266757011E0;-1,045469642E-1;1,432276726E0
3,017545833E0;1,168496609E0;1,467409432E-1;-4,903502464E-1
3,117545833E0;2,637627125E0;-3,352954984E-1;2,070909023E0
3,217545833E0;1,531971455E0;-1,469583035E0;3,867812157E-1
3,317545833E0;9,495534897E-1;-2,918487787E0;-7,303810120E-2
3,417545833E0;1,268991470E0;-1,763595819E0;-1,054187775E0
3,517545833E0;-1,545429230E-2;-1,671197891E0;1,015928745E0
3,617545833E0;-1,920294046E0;-9,933998585E-1;1,504224300E0
3,717545833E0;1,830315351E0;-5,401849747E-2;1,101550102E0
3,817545833E0;1,351310968E0;-1,649082184E0;5,461626053E-1
3,917545833E0;4,047650099E-1;-1,697293282E0;1,231602669E0
4,017545833E0;5,547260046E-1;-2,282235146E0;1,125839710E0
4,117545833E0;2,651596069E-1;-1,009255886E0;9,663581848E-3
4,217545833E0;2,231809616E0;-6,050815582E-1;-4,092478752E-1
4,317545833E0;-9,355475903E-1;-8,270425797E-1;-3,810143471E-1
4,417545833E0;-9,699332714E-1;-1,261040211E0;-2,289056778E-1
4,517545833E0;1,526959658E0;-1,045494080E0;5,749421120E-1
4,617545833E0;3,506774902E-1;-1,164859533E0;7,068548203E-1
4,717545833E0;-7,618691921E-1;-5,121786594E-1;1,484527588E-1
4,817545833E0;2,885318995E-1;-1,616646051E0;3,106888771E0
4,917545833E0;2,723482132E0;-4,133896351E0;-4,889208794E0
5,017545833E0;-1,064635992E0;-1,508830309E0;2,287692547E0
5,117545833E0;2,790575624E-1;7,682607174E-1;4,854303360E0
5,217545833E0;2,952756882E0;-6,701905727E0;-3,968829155E0
5,317545833E0;2,134640694E0;1,638300896E0;5,453653336E-1
5,417545833E0;2,527541876E0;-2,359519005E-1;-5,412697792E-1
5,517545833E0;2,743647099E0;1,004697323E0;-3,053755760E-1
5,617545833E0;1,137634039E0;5,857853889E-1;-7,300710678E-2
5,717545833E0;-3,092847168E-1;-1,082457542E0;-1,164281368E0
5,817545833E0;3,572162151E0;-2,463435173E0;-3,042449951E-1
5,917545833E0;-1,494591951E0;-2,480082512E0;1,558485031E0
6,017545833E0;2,360953569E0;-1,030990124E0;-8,887863159E-1
6,117545833E0;2,661205053E0;-8,003520966E-2;-4,742226601E-1
6,217545833E0;1,441101789E0;1,850680113E0;3,903872490E0
6,317545833E0;2,295830727E0;-2,105596542E0;7,011938095E-1
6,417545833E0;-3,097903013E0;-3,549969196E-1;5,263623714E0
6,517545833E0;-2,201354742E0;3,753621101E0;2,077423096E0
6,617545833E0;-9,147489071E-1;1,391723633E0;4,116258621E-1
6,717545833E0;2,395365477E0;1,307623386E0;7,706084251E-1
6,817545833E0;8,810150623E-2;1,837558746E-1;1,241108894E0
6,917545833E0;1,367234945E0;-3,399176598E0;-1,939017773E0
7,017545833E0;3,316811323E-1;-2,288932800E0;-2,429157257E0
7,117545833E0;-8,678007126E-2;-1,435981750E0;-3,126964569E-1
7,217545833E0;3,077461720E-1;-1,176412106E0;-1,516968727E0
7,317545833E0;3,058748245E-1;-1,818780899E-1;2,043589592E0
7,417545833E0;-1,830105066E0;-1,902997494E-1;1,269590855E0
7,517545833E0;-8,230601549E-1;1,467508674E0;2,404740334E0
7,617545833E0;-2,220693111E0;-1,349415779E-1;3,467779160E0
7,717545833E0;9,037547112E-1;-5,066385269E-1;2,036183834E0
7,817545833E0;1,138092041E0;-1,739935875E0;8,067131042E-3
7,917545833E0;-2,686520815E-1;-1,774033070E0;4,621982574E-1
8,017545833E0;3,901246786E-1;-9,848279953E-1;-1,939935684E-1
8,117545833E0;4,969310760E-1;-6,323137283E-1;-4,494552612E-1
8,217545833E0;-4,386484623E-2;1,090478420E0;1,609978676E0
8,317545833E0;8,504631519E-1;-1,781237125E0;-5,628499985E-1
8,417545833E0;-1,774215698E-2;-4,596657753E-1;1,385549545E0
8,517545833E0;1,188256502E0;-1,506062031E0;5,549798012E-1
8,617545833E0;1,432133913E0;2,168898582E-1;-1,179332733E-1
8,717545833E0;1,048317909E0;-1,229785919E0;-1,553775787E0
8,817545833E0;-1,694162965E0;2,102322578E-1;1,413853645E0
8,917545833E0;-8,387725353E-1;-7,815189362E-1;1,658216000E0
9,017545833E0;6,435682774E-1;1,913890839E-1;-6,080188751E-1
9,117545833E0;-8,692457676E-1;3,117895126E-2;1,094731331E0
9,217545833E0;-1,755321026E-1;-4,843485355E-1;6,088237762E-1
9,317545833E0;1,453764439E-1;-1,120814323E0;-3,883647919E-2
9,417545833E0;1,572742462E-1;1,613402367E0;1,829027176E0
9,517545833E0;1,028910637E0;2,231686115E-1;3,026638031E-1
9,617545833E0;-1,179579735E0;3,512549400E-2;4,232702255E-1
9,717545833E0;2,945232391E-1;-8,645672798E-1;-1,797046661E-1
9,817545833E0;-4,080163240E-1;-1,001854420E0;7,080268860E-1
9,917545833E0;5,650277734E-1;-1,269518375E0;-2,276329517E0
1,001754583E1;9,347156286E-1;-9,740581512E-1;-8,755464554E-1
1,011754583E1;-1,249281168E0;-1,034286499E0;6,701455116E-1
1,021754583E1;-7,935556173E-1;2,238874435E-1;6,089887619E-1
1,031754583E1;-7,818400860E-2;-6,154813766E-1;-7,199716568E-2
1,041754583E1;-1,079107165E0;-9,467067719E-1;3,734412193E-1
1,051754583E1;-7,852467299E-1;2,835597992E-1;1,039941549E0
1,061754583E1;-1,135419607E0;-1,327800751E-1;1,016219139E0
1,071754583E1;1,738113165E-2;-2,817068100E-1;-1,107091904E-1
1,081754583E1;-6,710101962E-1;-8,899211884E-1;6,379184723E-1
1,091754583E1;-1,362914324E0;-5,699262619E-1;1,367879868E0
1,101754583E1;7,460221648E-1;3,457269669E-1;-1,395835876E-1
1,111754583E1;-4,589912891E-1;-2,521052361E-1;4,879021645E-1
1,121754583E1;-5,722489357E-1;-9,798245430E-1;4,611778259E-1
1,131754583E1;-5,839064121E-1;-5,693769455E-1;4,150390625E-1
1,141754583E1;-4,619840384E-1;-3,629159927E-2;1,743528366E0
1,151754583E1;-6,383016109E-1;-5,478878021E-1;9,796400070E-1
1,161754583E1;6,145292521E-2;-2,944898605E-2;1,499529362E0
1,171754583E1;-4,938686788E-1;-1,742765427E0;-5,806651115E-1
1,181754583E1;6,616394222E-2;1,346755028E-1;1,342248917E0
1,191754583E1;-6,548910141E-1;1,068305969E-2;3,110466003E-1
1,201754583E1;7,238883376E-1;-4,185791016E-1;-9,587740898E-1
1,211754583E1;9,435671568E-2;9,335904121E-1;-1,011189461E0
1,221754583E1;-1,527385116E0;4,112029076E-1;5,552883148E-1
1,231754583E1;-2,820719719E0;9,485549927E0;4,865934372E0
1,241754583E1;2,261068106E0;1,451858997E0;3,992178440E0
1,251754583E1;2,757217169E0;-8,971529007E-1;-2,695745468E0
1,261754583E1;-7,407959104E-1;1,387052536E-1;7,372522354E-2
1,271754583E1;-6,563562155E-2;-4,936065674E-1;-2,811164856E-1
1,281754583E1;8,588078022E-1;1,259374619E-2;4,705619812E-2
1,291754583E1;-3,536243737E-1;2,477240562E-1;7,511358261E-1
1,301754583E1;-9,602363110E-1;2,486367226E-1;6,702518463E-1
1,311754583E1;1,566752672E0;9,774985313E-1;1,617836952E-1
1,321754583E1;-3,126966953E-2;7,487745285E-1;1,473495960E0
1,331754583E1;-1,769716382E0;-1,384911060E0;1,122851849E0
1,341754583E1;3,100226879E0;-1,228731155E0;-2,067577362E0
1,351754583E1;3,106973171E-1;1,156114578E0;1,240614414E0
1,361754583E1;-7,942458987E-1;-4,203310013E-1;6,100177765E-2
1,371754583E1;5,917819738E-1;-7,422890663E-1;-2,874755859E-1
1,381754583E1;4,064428210E-1;-3,568115234E-1;2,800993919E-1
1,391754583E1;-4,181231260E-1;9,191050529E-1;8,051428795E-1
1,401754583E1;-8,013470173E-1;4,740147591E-1;1,106073856E0
1,411754583E1;2,610936761E-2;8,419857025E-1;7,055873871E-1
1,421754583E1;1,508966088E0;-7,891273499E-1;-1,324613094E0
1,431754583E1;-1,239882588E0;2,074387550E0;2,789966106E0
1,441754583E1;-1,782375574E-2;-6,455230713E-2;-1,217610836E0
1,451754583E1;1,835015297E0;-2,962007523E-1;3,050373077E0
1,461754583E1;5,326519012E-1;-2,926506996E0;-1,139855385E-1
1,471754583E1;-3,692665100E-1;-1,730940819E0;-5,379488468E-1
1,481754583E1;2,247339725E0;2,076549530E-1;-2,861648321E0
1,491754583E1;-2,136022568E0;-4,917567253E0;-1,926855087E0
1,501754583E1;-1,401735544E-1;-4,691982269E-1;3,817358017E-1
1,511754583E1;1,073180795E0;-3,716425419E0;-4,413957596E-1
1,521754583E1;-1,185002327E-1;3,750324249E-3;6,727600098E-2
1,531754583E1;-1,782593608E0;2,875021935E0;5,203894138E0
1,541754583E1;2,005996704E0;1,123425961E0;1,819437504E0
1,551754583E1;-2,089284897E0;3,030762196E0;6,067915440E0
1,561754583E1;-1,305350780E0;-3,281490803E0;-2,423503876E0
1,571754583E1;1,785434723E0;4,887601852E0;-1,756730080E-1
1,581754583E1;4,879617691E-1;-2,323003769E0;-2,918710232E0
1,591754583E1;1,359682083E-1;-5,949726105E-1;2,438659668E-1
1,601754583E1;9,461560249E-1;-1,141869545E0;-1,452417850E0
1,611754583E1;2,078249216E0;8,488717079E-1;-5,888757706E-1
1,621754583E1;9,684741497E-1;2,455852509E0;2,172470093E-3
1,631754583E1;2,386963367E-1;-8,568143845E-1;4,416794777E-1
1,641754583E1;-2,674063683E0;-1,194508076E-1;5,801748276E0
1,651754583E1;7,876172066E-1;2,946917057E0;-9,285583496E-1
1,661754583E1;-1,957928658E0;3,457558632E0;1,116496563E0
1,671754583E1;1,036534786E0;-2,479269028E0;-5,538811684E-1
1,681754583E1;1,303611040E0;-4,766717911E0;-3,176952362E0
1,691754583E1;2,018982887E0;-2,141304016E-1;-2,626749039E0
1,701754583E1;9,865217209E-1;-2,285556793E0;-1,671500206E-1
1,711754583E1;2,539730072E-1;1,652619839E0;-2,030286312E0
1,721754583E1;1,681079865E-1;4,797253609E-1;1,464390755E-1
1,731754583E1;-1,409436941E0;2,861311436E-1;1,540256023E0
1,741754583E1;-1,615856290E0;3,344217539E0;1,443925858E0
1,751754583E1;9,777011871E-1;2,028832436E-1;3,385710716E-1
1,761754583E1;-4,054546356E-3;1,720299721E-1;-1,141973019E0
1,771754583E1;9,429956675E-1;-1,174409866E0;5,652465820E-1
1,781754583E1;1,661304474E0;-1,706652641E0;-4,757327080E0
1,791754583E1;-1,728184700E0;-1,922976017E0;-9,812946320E-1
1,801754583E1;-3,216726780E0;1,020069599E0;-1,985896111E0
1,811754583E1;-1,684105754E0;1,516857147E0;2,343626022E0
1,821754583E1;-1,695132017E0;-2,036815166E0;3,631312847E0
1,831754583E1;-3,124017715E-1;-3,975845098E0;1,699592590E0
1,841754583E1;-7,436637878E-1;2,606888771E0;2,009025574E0
1,851754583E1;-6,183757782E-1;1,605873108E-1;7,057199478E-1
1,861754583E1;1,295811415E0;-1,895740032E0;3,607568741E-1
1,871754583E1;-1,048663139E0;-2,547383308E0;-3,593301296E0
1,881754583E1;-1,103680491E0;-2,017927170E-1;7,574987411E-1
1,891754583E1;2,655650139E0;1,776833534E-1;1,548767090E-2
1,901754583E1;5,876190662E-1;-3,157782555E-1;-9,581303596E-1
1,911754583E1;-9,279966354E-2;-1,322071075E0;4,550123215E-1
1,921754583E1;-1,959177256E0;-1,919026375E-1;1,790506363E0
1,931754583E1;-6,392464638E-1;-4,417512417E-1;1,174022198E0
1,941754583E1;-1,330275536E0;1,382002831E-1;2,989331722E0
1,951754583E1;-1,133766174E0;4,720754623E-1;2,308712482E0
1,961754583E1;-3,191921711E-1;9,763245583E-1;1,188875198E0
1,971754583E1;-6,288017035E-1;-2,427569389E0;-1,724979401E0
1,981754583E1;2,256340742E0;-9,429267883E0;-6,500541210E0
1,991754583E1;-3,406938076E0;3,137565136E0;5,199063301E0
2,001754583E1;5,969362259E-1;4,922432899E-1;-3,797639370E0
2,011754583E1;3,152260780E0;-2,850461483E0;-1,774760246E0
2,021754583E1;-1,105094910E0;9,511480331E-1;2,153911591E0
2,031754583E1;-2,890954971E0;7,900922298E-1;5,489778519E0
2,041754583E1;-1,442780972E0;-6,349425316E-1;7,586579323E-1
2,051754583E1;-2,747876644E-1;1,445417404E0;2,772534847E0
2,061754583E1;8,630323410E-1;-2,670456409E0;-5,452814102E-1
2,071754583E1;2,327826977E0;-3,288913727E0;-1,287879467E0
2,081754583E1;2,135981083E0;-1,136404037E0;-3,626004696E0
2,091754583E1;2,535336494E0;-4,084681034E0;-3,529143333E-1
2,101754583E1;-7,870864868E-2;8,869829178E-1;3,439388514E0
2,111754583E1;-3,136152267E0;1,569795609E-2;4,391958237E0
2,121754583E1;-5,301074982E-1;1,622595787E0;4,021453857E-2
2,131754583E1;-3,128296852E0;4,279225349E0;2,749469757E0
2,141754583E1;-1,639382839E0;6,689152718E-1;6,410660744E-1
2,151754583E1;8,979606628E-1;-1,831965923E0;9,958705902E-1
2,161754583E1;1,588825941E0;-4,618558884E0;-4,377811432E0
2,171754583E1;1,001041651E0;-1,294873238E0;-8,508801460E-1
2,181754583E1;2,025302887E0;-1,851477623E-1;5,257210732E-1
2,191754583E1;-2,580881119E-1;-6,015224457E-1;1,685279369E0
2,201754583E1;-1,631085157E0;-2,112789631E0;2,201918602E0
2,211754583E1;-2,769054174E0;2,961328983E0;4,864933491E0
2,221754583E1;1,124435663E0;1,580527782E0;1,310348511E-1
2,231754583E1;-9,055857658E-1;3,702163696E-1;1,940615654E0
2,241754583E1;1,422742128E0;-3,316573143E0;-2,404192924E0
2,251754583E1;2,187100172E0;-3,720393181E0;-2,673342705E0
2,261754583E1;-2,003656387E0;8,208374977E-1;2,040458679E0
2,271754583E1;3,364847183E0;-7,920789719E0;-3,524051189E0
2,281754583E1;-2,708671093E0;1,101529121E0;2,926139355E0
2,291754583E1;-2,066531181E-1;-1,477196455E0;-8,210372925E-2
2,301754583E1;-9,655034542E-1;3,839351416E0;1,072717667E0
2,311754583E1;-1,252032518E0;1,459613800E0;1,970889091E0
2,321754583E1;-1,139654279E0;-2,498018265E0;3,023701668E0
2,331754583E1;3,250095367E0;-1,795046806E0;-1,523369312E0
2,341754583E1;3,654920578E0;9,231872559E-1;-2,234449387E0
2,351754583E1;-1,527390838E0;-6,631088257E-1;1,615580082E0
2,361754583E1;-4,093003273E-1;-8,433790207E-1;1,918315887E-3
2,371754583E1;-1,302292585E0;-7,147712708E-1;1,081099033E0
2,381754583E1;-3,121106863E0;4,256596565E-1;5,770117760E0
2,391754583E1;1,367551327E0;3,493641376E0;2,054217815E0
2,401754583E1;8,190143108E-1;-4,376314640E0;7,688660622E-1
2,411754583E1;1,529218435E0;2,729058266E0;3,971541882E0
2,421754583E1;2,754785538E0;-4,768332481E0;-4,494791031E0
2,431754583E1;-6,981303692E-1;3,180260658E-1;-8,312888145E-1
2,441754583E1;7,485446930E-1;-1,004516602E0;-7,490448952E-1
2,451754583E1;1,103372812E0;-5,903272629E-1;4,963903427E-1
2,461754583E1;-6,998610497E-1;-2,757340431E0;4,699115753E-1
2,471754583E1;-5,247165680E0;3,295305252E0;6,271160126E0
2,481754583E1;-1,443715572E0;1,212887526E0;-7,719101906E-1
2,491754583E1;9,627332687E-1;2,810933113E0;1,317361355E0
2,501754583E1;-8,146914244E-1;-3,222918510E0;-2,626309872E0
2,511754583E1;6,732356548E-1;4,414863586E-1;-2,446017265E-1
2,521754583E1;2,134243727E0;-2,404101849E0;4,211978912E-1
2,531754583E1;-1,225059748E0;6,442489624E-1;7,318782806E-2
2,541754583E1;-1,357649565E0;-9,731812477E-1;1,706640720E0
2,551754583E1;-1,228549719E0;6,807088852E-3;5,518077374E0
2,561754583E1;-6,797823906E-1;4,467248917E0;2,233936787E0
2,571754583E1;7,497537136E-1;1,536054611E0;2,440548897E0
2,581754583E1;-6,676180363E-1;-4,645245075E0;-5,905189514E-1
2,591754583E1;-1,575305820E0;-2,312208176E0;-8,215584755E-1
2,601754583E1;1,474782467E0;1,981494904E0;-2,110772133E0
2,611754583E1;2,450749636E0;-3,863341808E0;-1,688913345E0
2,621754583E1;-1,128010750E0;9,814701080E-1;2,269191742E0
2,631754583E1;-1,904884815E0;1,506793976E0;2,479868889E0
2,641754583E1;-8,791513443E-1;1,850190878E0;5,141887665E-1
2,651754583E1;-2,419786453E0;1,863693237E0;1,768296242E0
2,661754583E1;3,164128065E0;-3,886967182E0;-1,738204956E-1
2,671754583E1;-6,747012138E-1;-2,039339066E0;7,241225243E-1
2,681754583E1;1,681675673E0;1,384510994E0;3,733596802E-1
2,691754583E1;1,622639179E0;-4,301011086E0;-2,922448635E0
2,701754583E1;1,994011402E0;-6,997423172E-1;-1,569075584E-1
2,711754583E1;-1,531549454E0;2,246654034E-1;3,059155941E0
2,721754583E1;-1,282406569E0;3,026314259E0;4,732819557E0
2,731754583E1;-1,087275982E0;3,749767780E0;1,523567200E0
2,741754583E1;-2,258772850E0;-1,830709934E0;-1,959805965E0
2,751754583E1;-1,730322838E-2;-1,594555855E0;-2,293775082E0
2,761754583E1;-3,509593010E-2;-5,383437157E0;-5,016308308E0
2,771754583E1;2,145039797E0;2,936766148E0;1,116579533E0
2,781754583E1;2,739127636E0;-3,727487564E0;-4,376569748E0
2,791754583E1;-1,338446617E0;-3,830919266E-1;2,926148415E0
2,801754583E1;-3,890199661E-1;4,043800831E-1;3,211633682E0
2,811754583E1;-1,738095760E0;2,814352512E0;3,938295364E0
2,821754583E1;1,880156994E0;-2,041740894E0;7,568130493E-1
2,831754583E1;1,585107327E0;1,381433010E0;1,078088760E0
2,841754583E1;5,171459198E0;-1,385235596E1;1,307287216E-1
2,851754583E1;-3,276304245E0;4,190810204E0;2,819931984E0
2,861754583E1;6,672537804E0;-4,566112041E0;-4,025997639E0
2,871754583E1;7,737619877E-1;-1,758709431E0;-2,299660683E0
2,881754583E1;-2,991211176E0;1,355283737E0;2,202976704E0
2,891754583E1;-2,999296427E0;4,742269516E-1;2,675446510E0
2,901754583E1;-1,330008507E-1;3,277320862E0;1,243618965E0
2,911754583E1;-4,982352257E-1;-2,729135513E0;-3,024959564E-1
2,921754583E1;1,467523575E0;-2,859497070E0;-1,254004478E0
2,931754583E1;3,534981012E0;-2,850465775E-1;-1,937932968E0
2,941754583E1;1,207126617E0;-1,208299637E0;1,700775623E0
2,951754583E1;2,897930145E-1;-2,591032028E0;-1,411642551E0
2,961754583E1;-1,087404013E0;-1,882567406E-1;5,075292587E0
2,971754583E1;-4,493052959E-1;-2,598762512E-4;2,953010082E0
2,981754583E1;-2,145216227E0;2,879314423E-1;2,195008278E0
2,991754583E1;2,641801834E-1;-9,827365875E-1;-2,257852554E-1
3,001754583E1;-2,600608826E0;-1,034120560E0;-9,483861923E-2
3,011754583E1;5,554533005E-1;-5,069719315E0;-4,329616547E0
3,021754583E1;-1,130028367E0;7,620852947E0;1,720984697E0
3,031754583E1;3,239351034E0;-1,072424889E0;-6,697547913E0
3,041754583E1;4,595536709E0;-1,577784538E0;-1,008775711E0
3,051754583E1;-4,222918510E0;-1,058805466E0;7,876818180E0
3,061754583E1;-3,088437557E0;5,354165554E0;6,182377815E0
3,071754583E1;1,367748260E0;-1,558880329E0;-2,425885201E0
3,081754583E1;-2,945187807E0;-1,630292892E0;5,022509098E0
3,091754583E1;5,950397491E0;-7,410009384E0;-7,132897377E-1
3,101754583E1;3,689750433E0;-1,162031174E0;-3,413906574E0
3,111754583E1;1,664762020E0;-2,700297832E0;-3,744592667E-1
3,121754583E1;-1,952209711E0;-2,548422813E-1;4,049815655E0
3,131754583E1;3,690328598E-1;-2,258404255E0;-1,920253754E0
3,141754583E1;-5,615756035E0;1,352736712E0;6,140919685E0
3,151754583E1;-2,376408577E0;7,966693878E0;3,705353737E0
3,161754583E1;1,184226036E0;-2,493828773E0;-2,476354599E0
3,171754583E1;-2,483722925E0;3,102698326E-1;2,319455147E0
3,181754583E1;-1,914359331E-1;-5,637910843E0;-2,635152340E0
3,191754583E1;-1,801684618E0;-3,458813190E0;4,059429169E-1
3,201754583E1;2,413666248E0;2,909441471E0;6,178364754E-1
3,211754583E1;9,395973682E-1;3,249268532E-1;-4,480562687E0
3,221754583E1;-2,625195503E0;5,992729664E-1;7,176096439E0
3,231754583E1;-1,678459167E0;4,240286827E0;1,991147995E0
3,241754583E1;-7,327919006E-1;-4,782493591E0;-1,408519745E0
3,251754583E1;5,862720013E-1;-1,754881382E0;1,021464825E0
3,261754583E1;1,775480986E0;-2,789889336E0;-3,923953533E0
3,271754583E1;9,858283997E-1;-1,275019646E0;-3,696797848E0
3,281754583E1;6,890525818E-1;-3,079409122E0;-1,907128811E0
3,291754583E1;1,685150385E0;-1,914460182E0;3,197234392E0
3,301754583E1;-8,618304729E-1;4,339365959E-1;1,104066372E0
3,311754583E1;-5,081198215E0;2,336731195E0;7,848328590E0
3,321754583E1;1,213469505E0;-1,886578560E0;2,117049694E0
3,331754583E1;-2,217134714E0;-1,234106064E0;1,047390938E0
3,341754583E1;3,822618723E0;-5,932178497E0;-3,140068531E0
3,351754583E1;4,902224541E-1;7,617759705E-2;-3,535828590E-1
3,361754583E1;7,572040558E-1;-2,763371944E0;1,333754301E0
3,371754583E1;1,155203581E0;-3,398291588E0;3,091793060E-1
3,381754583E1;-2,357871771E0;-3,909373283E-1;2,898220062E0
3,391754583E1;-2,076003551E-1;-4,955008030E-1;1,011857033E0
3,401754583E1;-1,539871216E0;5,084859371E0;1,487969398E0
3,411754583E1;1,663942337E-1;-1,696022987E0;1,111596107E0
3,421754583E1;3,154283047E0;-5,213731289E0;-1,775705814E0
3,431754583E1;4,271074772E0;-1,524165154E0;-2,019512177E0
3,441754583E1;-1,586083174E0;-1,165480614E0;-4,046144485E-1
3,451754583E1;-4,795804024E-1;-4,049149990E0;-1,027263641E0
3,461754583E1;-2,980332375E0;9,234037399E-1;2,156945705E0
3,471754583E1;9,767696857E-1;-5,243432522E-1;-1,442568779E0
3,481754583E1;-3,421321154E0;7,940990925E-1;4,549849510E0
3,491754583E1;-6,741690636E-2;6,947726250E0;2,226074219E0
3,501754583E1;7,769498825E-1;-1,271689034E1;-6,425027847E0
3,511754583E1;2,362792969E0;-2,625036240E0;-3,219724655E0
3,521754583E1;2,743096352E0;9,240102768E-1;-2,266706467E0
3,531754583E1;1,100077152E0;-3,558962822E0;-1,713029861E0
3,541754583E1;1,767357349E0;-2,153569221E0;6,930990219E-1
3,551754583E1;-3,458541870E0;7,242932320E-1;2,336260796E0
3,561754583E1;-2,478677511E0;1,269064069E0;4,716576099E0
3,571754583E1;-2,418159008E0;3,381621599E0;2,705202579E0
3,581754583E1;-1,417930126E-1;-3,512764931E0;7,333812714E-1
3,591754583E1;-6,076641083E-1;-5,002384186E-1;-6,087861061E-1
3,601754583E1;-1,478115082E0;-7,295002937E0;-5,076315403E0
3,611754583E1;-9,244282246E-1;5,886378288E-1;1,049189568E0
3,621754583E1;5,343271732E0;-5,059710503E0;-4,811443329E0
3,631754583E1;-3,947352648E0;-4,470314980E-1;4,946091175E0
3,641754583E1;-2,116863489E0;6,801323891E-1;5,778760910E0
3,651754583E1;1,631659031E0;9,592480659E-1;6,266441345E-1
3,661754583E1;-9,159464836E-1;5,731592178E-1;3,803443909E-1
3,671754583E1;2,500522614E0;-2,291052818E0;5,720186234E-2
3,681754583E1;4,492672920E0;-2,161639214E0;-2,037269592E0
3,691754583E1;-3,301016092E0;2,947606087E0;2,797910690E0
3,701754583E1;1,734726667E0;-4,802714348E0;-2,692199230E0
3,711754583E1;-4,445800781E-1;-3,648900986E-2;9,970707893E-1
3,721754583E1;-2,497786045E0;1,694870114E0;1,344622612E0
3,731754583E1;-4,813767433E0;4,498836040E0;4,172637939E0
3,741754583E1;6,808824539E-1;-1,366349697E0;1,546398640E0
3,751754583E1;8,534867764E-1;-1,607337475E0;-2,327770710E0
3,761754583E1;4,926664829E-1;8,125877380E-2;1,517691612E-1
3,771754583E1;5,083386898E-1;1,413135529E-1;-1,742743015E0
3,781754583E1;3,445132017E0;-5,082254887E0;-3,981002331E0
3,791754583E1;-3,649494171E0;4,379956245E0;6,685689449E0
3,801754583E1;2,788358688E0;-2,455187559E0;-3,646000862E0
3,811754583E1;-6,303300381E0;7,773168564E0;3,905653000E0
3,821754583E1;1,175953865E0;-3,616156578E-1;2,184584618E0
3,831754583E1;1,261296511E0;-9,514999390E-1;1,652121544E0
3,841754583E1;2,425943613E0;-4,177589417E0;-3,094333172E0
3,851754583E1;-2,942218781E-1;7,409038544E-1;-2,131452560E-1
3,861754583E1;1,934182882E0;-9,795060158E-1;1,686026096E0
3,871754583E1;3,229509354E0;-5,014507294E0;2,088098049E0
3,881754583E1;-2,711106777E0;-4,724885941E0;4,511081696E0
3,891754583E1;-4,947757721E-2;1,350121260E0;5,514873028E0
3,901754583E1;-1,082745552E0;9,177947044E-1;-7,165985107E-1
3,911754583E1;-2,841129303E-1;1,422339439E0;-1,966810226E-2
3,921754583E1;2,116777420E0;-1,506134987E0;-2,788543701E0
3,931754583E1;2,414892197E0;-3,561378479E0;-1,733219147E0
3,941754583E1;-4,315967560E-1;1,102752686E-1;-5,811786652E-2
3,951754583E1;3,009369850E0;-2,413046837E0;-5,274901390E-1
3,961754583E1;8,089017868E-1;-1,062490940E0;1,567049026E-1
3,971754583E1;-3,672700405E0;4,222412109E-1;7,840594292E0
3,981754583E1;-1,168943882E0;2,872940779E0;2,069298267E0
3,991754583E1;-2,910844326E0;3,631691933E-1;2,424728870E0
4,001754583E1;-1,280736923E0;-2,756837845E0;-2,131657600E-1
4,011754583E1;1,136496544E0;-6,546415329E0;-4,698589802E0
4,021754583E1;2,471690178E0;2,040777206E-1;-2,608976841E0
4,031754583E1;2,414345503E0;-1,506993294E0;-1,142305374E0
4,041754583E1;7,315564156E-1;-1,603568077E0;3,476227522E0
4,051754583E1;-1,050173521E0;-1,582334042E-1;4,748401642E-1
4,061754583E1;-2,889948606E0;1,872944951E0;3,949888229E0
4,071754583E1;-2,544527054E-1;1,237814665E0;1,031543255E0
4,081754583E1;1,817664146E0;-2,215065956E-1;8,572964668E-1
4,091754583E1;3,309017897E0;-4,603231430E0;-2,201459885E0
4,101754583E1;-3,616279364E-1;1,677849770E0;2,814608097E0
4,111754583E1;6,427860260E-2;-9,710206985E-1;1,392683744E0
4,121754583E1;2,895784378E-2;-9,628667831E-1;-9,026412964E-1
4,131754583E1;-1,013573885E0;-1,022449493E0;6,578359604E-1
4,141754583E1;-3,403804779E0;3,083135366E0;5,561758041E0
4,151754583E1;8,563137054E-2;2,821686983E0;1,703081131E-1
4,161754583E1;-1,518059254E0;-1,809000969E-1;-3,704171181E-1
4,171754583E1;2,236339569E0;-4,007238388E0;-5,615047932E0
4,181754583E1;3,228968382E0;-2,013897896E0;-2,097609997E0
4,191754583E1;-3,499341011E-2;-3,199014664E-1;1,456732750E-1
4,201754583E1;1,829125643E0;-1,604874611E0;2,051382065E-1
4,211754583E1;1,108279228E0;-1,372717857E0;-6,979527473E-1
4,221754583E1;-2,952704191E0;2,072859526E0;2,898385048E0
4,231754583E1;-1,985618591E0;2,981722355E0;4,265178204E0
4,241754583E1;-1,787663460E0;-2,136473656E-1;5,913314819E-1
4,251754583E1;6,334588528E-1;-2,346634865E0;7,252244949E-1
4,261754583E1;2,267148018E0;-3,373828888E0;-3,647893906E0
4,271754583E1;2,912896156E0;9,207601547E-1;-2,684420109E0
4,281754583E1;2,035187244E0;-3,094660759E0;-9,468793869E-1
4,291754583E1;5,019078255E-1;-2,626539230E0;1,934884548E0
4,301754583E1;-2,582804203E0;-4,581117630E-2;2,820663929E0
4,311754583E1;-1,987442732E0;7,677729130E-1;4,185230732E0
4,321754583E1;1,530089378E-1;2,133127213E0;7,974801064E-1
4,331754583E1;-1,577992678E0;-3,262391090E-1;1,005005836E-1
4,341754583E1;3,332677603E0;-5,515801907E0;-3,940127373E0
4,351754583E1;4,100315094E0;-2,600536346E-1;-9,114246368E-1
4,361754583E1;-1,120044947E0;-6,310176849E-1;5,087366104E-1
4,371754583E1;2,667293549E-1;-1,535602093E0;-1,133963108E0
4,381754583E1;-1,404476166E0;-4,310784340E-1;2,034624100E0
4,391754583E1;-2,817118645E0;1,714266658E0;4,909848690E0
4,401754583E1;-3,155713797E0;2,859502077E0;3,500063896E0
4,411754583E1;-2,808800697E0;2,360362291E0;3,324084759E0
4,421754583E1;2,296197176E0;-6,949390411E0;-3,954062462E-1
4,431754583E1;-8,653686047E-1;2,830875397E0;1,728399277E0
4,441754583E1;-1,333881378E0;-2,188683510E0;-2,939454556E0
4,451754583E1;9,923672676E-2;-2,551598549E0;1,309406757E0
4,461754583E1;2,136229753E0;4,237837791E-1;1,027716637E0
4,471754583E1;-1,507299900E0;-8,990168571E-2;1,313406944E0
4,481754583E1;-2,757936478E0;1,281422257E0;3,970039368E0
4,491754583E1;-2,153980017E0;3,536124706E0;2,430410385E0
4,501754583E1;-5,197646618E-1;-2,033196449E0;1,507337570E0
4,511754583E1;2,177194118E0;-2,109151840E0;-1,682472229E0
4,521754583E1;4,709309578E0;-1,888599396E0;-3,192775726E0
4,531754583E1;-8,391488791E-1;-3,852343559E-1;5,373353958E-1
4,541754583E1;1,078882217E0;-1,944468975E0;-1,241240978E0
4,551754583E1;1,548120737E0;-1,658031464E0;-1,719202518E0
4,561754583E1;-1,879303932E0;6,632342339E-1;3,318376064E0
4,571754583E1;-2,525233984E0;2,135040998E0;3,722628593E0
4,581754583E1;5,136313438E-1;-6,786584854E-2;4,119205475E-1
4,591754583E1;2,513210058E0;1,724085808E-1;-1,065177917E0
4,601754583E1;3,519055605E0;1,625223160E0;-1,854712009E0
4,611754583E1;-8,967635632E-1;-3,239500046E0;-1,528176785E0
4,621754583E1;4,764528275E-1;-1,057312965E0;1,060181618E0
4,631754583E1;2,909887791E0;-2,096778393E0;-2,599201679E0
4,641754583E1;-6,768894196E-1;-2,218615294E0;7,466387749E-1
4,651754583E1;-3,163933992E0;2,518082380E0;4,169852257E0
4,661754583E1;1,802959442E-1;3,927211046E0;9,985065460E-1
4,671754583E1;4,188685417E-1;-2,026820183E0;-1,934998035E0
4,681754583E1;9,538855553E-1;-1,050768852E0;-3,192259312E0
4,691754583E1;2,991611958E0;-2,450749397E0;-3,001534939E0
4,701754583E1;1,583003998E-1;-1,190036774E0;-1,705121994E-1
4,711754583E1;2,468122721E0;-1,894924164E0;-2,779990196E0
4,721754583E1;7,337989807E-1;2,583074570E-1;-6,545028687E-1
4,731754583E1;-8,213925362E-2;2,658408165E0;2,746908188E0
4,741754583E1;1,125588417E-1;3,849915266E0;4,277194977E0
4,751754583E1;-1,922493458E0;-4,023512840E0;5,023698807E-1
4,761754583E1;2,661365032E0;6,582002640E-1;-5,202988148E0
4,771754583E1;7,979948044E0;-9,306535721E0;-8,642400742E0
4,781754583E1;2,961003780E-1;2,266866684E0;1,462050915E0
4,791754583E1;2,511928082E-1;-3,070676327E0;-1,160845757E-1
4,801754583E1;2,754668713E0;-2,056816578E0;-8,174800873E-2
4,811754583E1;-3,374013662E0;1,353136063E0;7,783770561E-1
4,821754583E1;-4,887603283E0;3,092139006E0;5,509141922E0
4,831754583E1;1,938808441E0;1,332046986E0;6,798615456E-1
4,841754583E1;1,878118515E-2;-6,370906830E-1;4,244580269E-1
4,851754583E1;2,845678091E0;-6,534557343E-1;-1,760179043E0
4,861754583E1;3,065976858E0;-4,741045952E0;-6,190722466E0
4,871754583E1;-1,118439436E0;-2,597985268E-1;2,459440947E0
4,881754583E1;7,198085785E-1;-1,843657494E0;-7,375392914E-1
4,891754583E1;-5,162825584E-1;-2,057776451E-1;1,641391754E0
4,901754583E1;-2,468357086E0;2,660491943E0;3,104973316E0
4,911754583E1;-6,054291725E-1;2,899713993E0;2,581585884E0
4,921754583E1;-5,635933876E-1;-2,606653214E0;7,614297867E-1
4,931754583E1;2,468023300E0;-2,368269444E0;-2,317885876E0
4,941754583E1;8,207066059E-1;-4,053387642E0;-4,117992401E0
4,951754583E1;9,912109375E-2;-3,180370331E-1;1,473039150E0
4,961754583E1;2,280820847E0;-1,173178673E0;-1,900856495E0
4,971754583E1;7,595357895E-1;-5,769052505E-1;-1,156363487E-1
4,981754583E1;-7,541451454E-1;-2,039551735E-2;5,082998276E0
4,991754583E1;-4,016016960E0;3,977692127E0;4,758093834E0
5,001754583E1;3,891835213E-1;-3,689037800E0;9,455108643E-1
5,011754583E1;4,770939350E-1;-4,321608543E-1;-7,470321655E-2
5,021754583E1;3,401884556E0;-1,103256893E1;-5,206884861E0
5,031754583E1;4,038899422E0;5,154594421E0;1,020813227E0
5,041754583E1;4,285007477E0;-4,389027119E0;-6,303016663E0
5,051754583E1;-1,014913940E1;7,063298702E0;6,822524071E0
5,061754583E1;3,039362431E0;-6,202680588E0;-3,932065964E0
5,071754583E1;-5,711966515E0;2,871402502E0;4,208755493E0
5,081754583E1;-4,337407589E0;4,910375118E0;4,403812408E0
5,091754583E1;-2,440759182E0;-2,793446541E0;-3,251357079E-1
5,101754583E1;2,336261272E0;-1,656040192E0;-1,832149029E0
5,111754583E1;2,954641104E0;5,571632385E-1;1,275248528E-1
5,121754583E1;9,946303368E-1;-3,908250809E0;-3,411965370E-1
5,131754583E1;-1,313979626E-1;-8,748493195E-1;1,643227100E0
5,141754583E1;-2,443884850E0;4,560971260E0;-1,437130928E0
5,151754583E1;3,915851593E0;8,890370131E-1;-2,727638245E0
5,161754583E1;-4,837086678E0;4,527696609E0;7,000119686E0
5,171754583E1;4,209656715E-1;2,054096699E0;4,367802620E0
5,181754583E1;1,998725891E0;-8,353809357E0;-1,997456074E0
5,191754583E1;2,942569017E0;-2,235258102E0;-2,419713974E0
5,201754583E1;1,668816328E0;6,304340363E-1;-1,211212635E0
5,211754583E1;1,598676205E0;-2,295842648E0;4,540624619E-1
5,221754583E1;2,654703140E0;-1,211018085E0;5,912303925E-1
5,231754583E1;1,242446423E0;-2,162321329E0;-7,629222870E-1
5,241754583E1;-4,563617229E0;1,868845463E0;5,965940475E0
5,251754583E1;-1,281118393E-1;1,985793114E-1;1,949188709E0
5,261754583E1;6,377098560E-1;-1,296951294E0;-4,966263771E-1
5,271754583E1;2,906440735E0;-2,888254166E0;-1,240843773E0
5,281754583E1;3,203296185E0;-1,933778763E0;-2,133994102E0
5,291754583E1;1,096573591E0;-1,396022797E0;1,103069544E0
5,301754583E1;1,610397339E0;-1,356449127E0;1,109170914E-1
5,311754583E1;-1,102696896E0;-9,766659737E-1;-4,774522781E-1
5,321754583E1;-1,495660305E0;1,145322323E0;2,436671257E0
5,331754583E1;-2,862527847E0;4,227134705E0;1,573945045E0
5,341754583E1;-2,147822380E-1;-1,037290573E0;1,873723984E0
5,351754583E1;2,257560253E0;1,845879555E-1;7,006106377E-1
5,361754583E1;2,545068502E0;-5,102891922E-1;-6,456627846E-1
5,371754583E1;-1,227199316E0;3,078186035E0;2,129484653E0
5,381754583E1;2,467202187E0;-3,528082848E0;-2,170437336E0
5,391754583E1;-1,947790146E0;2,269115448E-1;1,231175423E0
5,401754583E1;-9,327950478E-1;3,940608501E-1;3,073500633E0
5,411754583E1;-1,950570583E0;1,332204342E0;3,429718971E0
5,421754583E1;-1,973209620E0;8,943142891E-1;2,304435730E0
5,431754583E1;3,722858429E-1;-1,159249306E0;1,938109398E-1
5,441754583E1;9,802405834E-1;-1,555796623E0;-2,999272346E0
5,451754583E1;4,802019596E-1;-4,262576103E0;-5,584783554E0
5,461754583E1;1,827758789E0;-1,136612415E0;-2,424732208E0
5,471754583E1;4,140007019E0;-1,693768978E0;7,939710617E-1
5,481754583E1;1,699132919E-1;-3,208563328E0;4,976797104E-2
5,491754583E1;-1,677509308E0;-1,028430462E-1;6,088901520E0
5,501754583E1;-4,216170311E-1;3,308629990E0;1,161549568E0
5,511754583E1;-1,906394958E-3;1,295748711E0;1,243884563E0
5,521754583E1;2,086022139E0;-5,187561035E0;4,554796219E-2
5,531754583E1;4,086476326E0;6,036472321E-2;-2,238621712E0
5,541754583E1;6,140418053E-1;3,502998352E-1;-1,192753792E0
5,551754583E1;-9,374592304E-1;-1,031512260E0;-6,078910828E-2
5,561754583E1;-3,089618683E-1;-2,130378246E0;1,842112541E-1
5,571754583E1;-1,400212288E0;-6,701045036E-1;1,966015339E0
5,581754583E1;-3,757034779E0;1,193423510E0;4,977581501E0
5,591754583E1;-2,237746239E0;2,462609529E0;2,510181904E0
5,601754583E1;-1,537908792E0;-2,366237640E0;1,527276516E0
5,611754583E1;1,038800478E0;-2,802934647E-1;-2,024466515E0
5,621754583E1;3,371248960E0;-2,462430000E0;-2,482107878E0
5,631754583E1;-2,600443363E-1;-5,087327957E-1;6,568193436E-1
5,641754583E1;2,034604549E0;-3,912255764E0;-9,979796410E-1
5,651754583E1;-1,505695105E0;-2,195324898E-1;2,596337318E0
5,661754583E1;7,447748184E-1;-8,509709835E-1;1,691850662E0
5,671754583E1;-5,159452438E0;3,918139696E0;5,185076237E0
5,681754583E1;9,567704201E-1;-1,589833260E0;2,073421955E0
5,691754583E1;3,356409073E-1;-1,657235622E0;-2,396917343E-1
5,701754583E1;4,431895256E0;-3,399031639E0;-4,515332222E0
5,711754583E1;1,292209387E0;-8,003940582E-1;-1,291363239E0
5,721754583E1;1,788020134E-1;-1,148861885E0;1,067006111E0
5,731754583E1;1,073871613E0;-1,589196205E0;-7,314500809E-1
5,741754583E1;-1,234369755E0;7,019631863E-1;3,511452675E0
5,751754583E1;-3,142627239E0;7,423424721E-1;3,132909298E0
5,761754583E1;-1,985805273E0;8,041384220E-1;2,641658306E0
5,771754583E1;1,702552319E0;-3,826368332E0;-1,300579548E0
5,781754583E1;3,837225676E0;-1,154245377E0;-3,694277287E0
5,791754583E1;1,217298508E0;-1,047487259E0;-2,615574360E0
5,801754583E1;-5,981736183E-1;-1,819365025E0;3,273625374E-1
5,811754583E1;2,815084457E-1;-4,007668495E-1;-4,987087250E-1
5,821754583E1;5,723590851E-1;-9,398617744E-1;4,213733673E-1
5,831754583E1;-1,892041683E0;9,172196388E-1;3,020478725E0
5,841754583E1;-4,015129089E0;1,860263944E0;2,902723789E0
5,851754583E1;-1,284655571E0;1,484002590E0;2,829055786E0
5,861754583E1;6,559667587E-1;-7,063184738E0;-1,922159672E0
5,871754583E1;2,371984482E0;1,893646240E0;-2,679915428E-1
5,881754583E1;7,388029575E0;-2,284894943E0;-7,583233356E0
5,891754583E1;-1,136600494E0;-2,703115463E0;-7,049570084E-1
5,901754583E1;-3,118703365E0;1,988570690E0;3,354212284E0
5,911754583E1;8,043622971E-2;-1,185739040E0;2,157127380E0
5,921754583E1;-2,654919147E0;3,300268412E0;3,875975132E0
5,931754583E1;-3,467712641E0;2,424766541E0;2,018583775E0
5,941754583E1;1,257147312E0;-2,179273605E0;3,356144428E0
5,951754583E1;4,448350430E0;-7,151699066E0;-5,857050896E0
5,961754583E1;2,183550358E0;-2,102031708E0;-1,570159912E0
5,971754583E1;-3,952996731E-1;-3,030028343E-1;7,630534172E-1
5,981754583E1;6,093568802E0;-4,729740143E0;-2,611347198E0
5,991754583E1;4,098043442E-1;-2,859869480E0;7,315349579E-1
6,001754583E1;-3,154103994E0;3,170037270E-2;5,026694298E0
6,011754583E1;-2,207048416E0;9,684593678E-1;1,723799229E0
6,021754583E1;6,400680542E-1;2,132634640E0;2,766389370E0
6,031754583E1;8,521583080E-1;-4,400193214E0;-2,794397354E0
6,041754583E1;2,393932819E0;-1,034697533E0;-1,925516605E0
6,051754583E1;3,595187664E-1;9,611544609E-1;-2,132018566E0
6,061754583E1;1,095065355E0;-2,626689911E0;-1,169510365E0
6,071754583E1;-3,157138824E-3;-4,392952919E0;5,255937576E-2
6,081754583E1;-3,036890268E0;7,093510628E-1;4,073352337E0
6,091754583E1;-5,622105598E-1;-8,267855644E-1;2,204895020E-3
6,101754583E1;-1,466248035E0;3,401439905E0;4,050599575E0
6,111754583E1;-8,626272678E-1;-1,952933788E0;-2,469059944E0
6,121754583E1;5,669291019E-1;-2,382125854E0;1,989458084E0
6,131754583E1;3,008139133E-1;5,866308212E-1;-2,202567339E0
6,141754583E1;-1,377958298E0;1,683727264E0;4,857380390E-1
6,151754583E1;6,237955093E-1;-3,062173367E0;-3,088469505E0
6,161754583E1;7,185072899E-1;1,697292328E-1;-4,767012596E-1
6,171754583E1;-1,116020441E0;6,721081734E-1;1,934245586E0
6,181754583E1;2,713041782E0;-7,805924416E-1;-8,499307632E-1
6,191754583E1;8,465905190E-1;7,663979530E-1;1,049104214E0
6,201754583E1;1,036096096E0;-6,294174194E-1;5,131349564E-1
6,211754583E1;6,107115746E-1;-1,825929165E0;1,608365059E0
6,221754583E1;-5,240302086E-1;2,399980068E0;2,747643948E0
6,231754583E1;3,552156925E0;-1,979279041E0;-9,763822556E-1
6,241754583E1;-8,926277161E-1;1,759037971E-1;3,781122208E0
6,251754583E1;1,708027840E0;-5,890000820E0;-6,077418327E-1
6,261754583E1;1,650625944E0;9,483079910E-1;2,513500214E0
6,271754583E1;3,752484798E0;-7,479943275E0;-2,645487309E0
6,281754583E1;-1,870131969E0;1,750465393E0;3,259639740E0
6,291754583E1;7,025835037E0;-3,380999088E0;-5,965808868E0
6,301754583E1;-1,687580347E0;-8,829832077E-1;2,534794807E-1
6,311754583E1;-1,959414244E0;2,823641062E0;4,552428246E0
6,321754583E1;3,601392746E0;-7,819903851E0;8,997502327E-1
6,331754583E1;-4,529724121E0;2,566783905E0;9,647667885E0
6,341754583E1;4,804095745E0;-5,420969486E0;-1,173569202E1
6,351754583E1;-4,563613415E0;-1,606875420E0;1,218268871E0
6,361754583E1;-2,312793255E0;5,361046791E-1;1,541695118E0
6,371754583E1;1,239660740E0;3,340577602E0;-1,835084915E0
6,381754583E1;2,311134338E-1;6,658039093E-1;-1,655933857E0
6,391754583E1;6,341266632E-1;-1,123198986E0;-3,028421402E-1
6,401754583E1;-9,678874016E-1;1,289424896E0;5,442423820E-1
6,411754583E1;7,216172218E-1;3,057123184E0;-2,731350422E0
6,421754583E1;-1,400040150E0;-1,846247673E0;-1,860387325E0
6,431754583E1;-3,639526844E0;3,583246946E0;3,399886608E0
6,441754583E1;-2,385194778E0;-1,512981892E0;-8,639492989E-1
6,451754583E1;1,199748516E0;8,889937401E-1;2,541872025E0
6,461754583E1;-1,263341904E0;-2,770690203E0;9,322052002E-1
6,471754583E1;2,273647308E0;4,104690552E0;3,580976963E0
6,481754583E1;2,725587368E0;1,254421234E0;-5,570235252E-1
6,491754583E1;1,885059595E0;-2,192994595E0;-3,330760002E-1
6,501754583E1;2,366697788E0;-1,243126869E0;2,869687080E-1
6,511754583E1;2,002751827E0;-1,752181053E0;1,176238060E0
6,521754583E1;3,479010582E0;-2,410388947E0;4,634375572E-1
6,531754583E1;4,877855778E-1;-9,804320335E-1;1,010324240E0
6,541754583E1;3,041999102E0;-1,278070450E0;-3,384938240E-1
6,551754583E1;4,207970619E0;-5,821714401E-1;5,281004906E-1
6,561754583E1;2,599158287E-1;-1,287932396E-1;1,018795967E-1
6,571754583E1;1,071383476E0;9,836311340E-1;1,643624783E0
6,581754583E1;-8,857886791E-1;-1,124935865E0;2,867035866E0
6,591754583E1;1,675763130E0;6,686215401E-1;1,978816509E0
6,601754583E1;7,597208023E-1;2,564760923E0;2,260640144E0
6,611754583E1;1,573871136E0;-3,569051266E0;2,550117016E0
6,621754583E1;3,262626171E0;3,855075836E-1;-5,395527840E0
6,631754583E1;8,285418510E0;-5,939682007E0;-6,692531586E0
6,641754583E1;7,296483517E0;-4,032603741E0;-2,593180656E0
6,651754583E1;-1,068017244E0;1,517813683E0;4,676788807E0
6,661754583E1;-4,931521416E-2;-8,336496353E-1;2,460673332E0
6,671754583E1;2,346830368E-1;-1,422907829E0;3,493761063E0
6,681754583E1;2,081470251E0;6,333396435E-1;4,523547173E0
6,691754583E1;7,846891880E-1;2,074654102E0;3,518669128E0
6,701754583E1;2,012008190E0;3,138608932E0;6,165986538E0
6,711754583E1;2,373567581E0;-4,658629894E0;-4,449574471E0
6,721754583E1;1,416038990E0;-1,898417473E-1;3,439073563E-1
6,731754583E1;1,695996761E0;-2,187893391E0;-3,295069218E0
6,741754583E1;1,236438751E-2;-7,570037842E-1;-1,358478546E0
6,751754583E1;4,356234074E-1;-6,546807289E-1;9,886422157E-1
6,761754583E1;-2,650237560E0;-3,446919918E-1;3,916681290E0
6,771754583E1;-1,835417747E-2;1,578061461E0;5,810059547E0
6,781754583E1;-2,317335606E-1;1,010381460E0;-5,016994476E-1
6,791754583E1;8,321568966E-1;-4,616436958E0;7,588868141E-1
6,801754583E1;1,297505856E0;-4,994115829E-1;2,263323307E0
6,811754583E1;6,496031761E0;-5,484409332E0;-4,414541721E0
6,821754583E1;1,460703373E0;-8,043169975E-1;1,377938747E0
6,831754583E1;4,873757362E-1;-4,288794994E0;-3,202728271E0
6,841754583E1;1,508593082E0;-6,243424416E-1;5,208622456E0
6,851754583E1;-2,517572165E0;-4,405763149E-1;3,839725494E0
6,861754583E1;-2,820789576E0;9,458651543E-1;3,125676155E0
6,871754583E1;-3,388681412E-1;-3,481290340E0;-1,095645428E0
6,881754583E1;-3,739049435E-1;1,710470676E0;-1,355042458E-1
6,891754583E1;1,722515821E0;-1,878356934E0;-4,544422626E-1
6,901754583E1;-2,735908031E0;-5,001506805E0;-1,437340260E0
6,911754583E1;-4,407808781E0;7,906455517E0;9,839712143E0
6,921754583E1;-6,234085560E0;2,871304989E0;-3,128835201E0
6,931754583E1;8,296426773E0;8,140990257E0;-1,210996151E1
6,941754583E1;-9,331635475E0;7,141616821E0;3,786564350E0
6,951754583E1;-2,627955675E0;-2,275355339E0;3,423220396E0
6,961754583E1;-4,984521866E-1;-1,539828300E0;2,351170540E0
6,971754583E1;8,250772953E-1;-1,776693344E0;4,378414154E0
6,981754583E1;1,705432415E0;-5,446062088E-1;2,190756798E-2
6,991754583E1;-2,075419903E0;-2,677160263E0;6,297683716E-1
7,001754583E1;-2,895408630E0;6,033601761E-1;1,292840481E0
7,011754583E1;-9,139652252E-1;-7,114028931E-1;-5,876321793E-1
7,021754583E1;-2,159044743E0;-1,312265635E0;1,464189529E0
7,031754583E1;2,571310997E-1;1,680218458E0;5,087164879E0
7,041754583E1;-1,829559326E0;-2,503500938E0;-4,197582245E0
7,051754583E1;-2,076138735E0;6,629543304E-1;-2,168302536E0
7,061754583E1;4,685114861E0;-1,133196831E0;-1,099244213E1
7,071754583E1;-6,865406036E-2;-6,869921684E-1;-8,878681660E-1
7,081754583E1;1,075311661E0;-2,021055222E-1;5,130300522E-1
7,091754583E1;3,517293930E-1;-1,178124428E0;-6,702880859E-1
7,101754583E1;1,638847828E0;-3,475814819E0;-3,051596642E0
7,111754583E1;-3,161701441E0;-7,538984299E0;8,844091415E0
7,121754583E1;-7,226190567E-1;5,320375443E0;-5,980362415E0
7,131754583E1;-4,834590435E0;2,137668133E0;-6,279228687E0
7,141754583E1;4,429717064E-1;-5,699947834E0;3,481949568E0
7,151754583E1;5,827651978E0;-2,918176651E-1;-2,854320765E0
7,161754583E1;-4,619827747E0;-3,787187099E0;6,046306133E0
7,171754583E1;2,998971939E0;-5,885039330E0;-4,969853401E0
7,181754583E1;-5,823504925E0;4,232872009E0;1,032481194E-1
7,191754583E1;-3,050460577E0;-5,847432613E-1;5,600577354E0
7,201754583E1;4,095878601E0;-5,631504059E-1;1,836463928E0
7,211754583E1;-2,208631754E0;9,490237236E-1;5,208096981E0
7,221754583E1;5,258412361E0;-8,872795105E0;-9,400872231E0
7,231754583E1;4,082641602E0;-3,065861225E0;-6,668968201E0
7,241754583E1;-8,965954781E-1;5,374574661E-1;1,866591215E0
7,251754583E1;7,620038986E-1;-2,649990559E0;-4,645776749E-2
7,261754583E1;-2,745031357E0;9,304931164E-1;7,827553272E0
7,271754583E1;6,956720352E-1;4,616150856E0;-3,049841881E0
7,281754583E1;-3,226757050E-3;1,271333694E-1;-4,620816708E0
7,291754583E1;2,826158047E0;-1,528083324E0;9,744393826E-1
7,301754583E1;5,092707634E0;-3,997554779E0;-9,984106064E0
7,311754583E1;-1,393386602E0;-2,558877945E0;4,767079353E-1
7,321754583E1;6,254992485E-1;-3,619266510E0;1,179814816E0
7,331754583E1;5,602846146E-1;-2,803072929E-1;-2,699227333E-1
7,341754583E1;-9,342409134E0;9,951770306E-1;3,989132404E0
7,351754583E1;2,449533463E0;1,044116497E0;2,728125572E0
7,361754583E1;-5,268408775E0;4,281142235E0;-2,483987808E-1
7,371754583E1;3,714603424E0;-3,693408966E-1;-2,291179180E0
7,381754583E1;-1,344157457E0;2,374835968E0;1,396207333E0
7,391754583E1;-8,297014236E-2;-1,227742672E0;7,663402557E-1
7,401754583E1;7,017545700E-1;-2,259212017E0;1,210783482E0
7,411754583E1;-1,992899418E0;-2,545092344E0;2,430563927E0
7,421754583E1;-9,410200119E-1;1,491632462E0;8,805925369E0
7,431754583E1;-3,252540350E0;8,243365288E-1;3,564406395E0
7,441754583E1;2,794504166E0;-6,248209953E0;-2,685261250E0
7,451754583E1;3,611602306E0;-1,316724777E0;-5,979024410E0
7,461754583E1;1,662356853E0;-4,811992645E-1;-1,189626217E0
7,471754583E1;3,756403446E0;-3,198654652E0;6,996178627E-1
7,481754583E1;1,282189369E0;-3,724451065E-1;7,090716362E-1
7,491754583E1;-4,211578369E-1;7,365682125E-1;2,979288101E-1
7,501754583E1;-4,131608009E0;5,700144768E-1;5,120691299E0
7,511754583E1;1,510553360E-1;-5,930733681E-1;-2,176752090E-1
7,521754583E1;2,486967564E0;1,073865891E-1;-3,547134399E-1
7,531754583E1;2,685894966E-1;-5,587577820E-3;-4,072564125E0
7,541754583E1;4,334632874E0;-3,075185776E0;-4,356198311E0
7,551754583E1;-1,027796745E0;1,602920532E0;1,459974051E0
7,561754583E1;1,154247761E0;-2,930335522E0;2,008311749E0
7,571754583E1;1,538907051E0;-1,300794125E0;1,354484558E0
7,581754583E1;3,656578064E-2;-2,688263893E0;2,598297596E0
7,591754583E1;-3,500370979E0;1,356990576E0;3,023433685E0
7,601754583E1;-1,226922512E0;4,671077728E-1;-1,638015747E0
7,611754583E1;3,975005150E-1;-1,695436478E0;3,784012794E0
7,621754583E1;-1,304218769E0;-1,447263718E0;1,771955967E0
7,631754583E1;5,274859905E0;-1,971316338E0;-3,792481899E0
7,641754583E1;1,291473389E0;1,159820080E0;2,251410484E-1
7,651754583E1;2,319214821E0;-1,230083466E0;7,805752754E-1
7,661754583E1;-2,443981171E-2;-3,052071095E0;3,294239044E-1
7,671754583E1;-1,343898296E0;-2,420781851E0;9,327754974E-1
7,681754583E1;-5,986509323E-1;4,873047829E0;-1,656532288E-2
7,691754583E1;7,100683212E0;4,276790619E-1;7,818267345E0
7,701754583E1;3,769575119E0;-6,459074497E0;-1,828426361E0
7,711754583E1;-6,875617504E-1;-2,463650703E0;-7,349556446E0
7,721754583E1;5,233329773E0;-2,137068748E0;-6,094311714E0
7,731754583E1;6,703562737E0;-1,121973515E0;-2,943155527E0
7,741754583E1;-2,619459391E0;7,536697388E-1;-1,862964630E-1
7,751754583E1;1,770486832E-1;1,673693895E0;2,009950638E0
7,761754583E1;-2,724588394E0;-6,988475323E-1;3,393745899E0
7,771754583E1;-2,028764725E0;2,166540861E0;5,182998657E0
7,781754583E1;-2,489288807E0;-1,073748589E0;-3,266382217E-2
7,791754583E1;9,558048248E-1;-7,742276192E-1;2,765116692E-1
7,801754583E1;1,962651968E0;1,005463123E0;-1,503548384E0
7,811754583E1;2,312018394E0;-9,535789490E-3;-2,538141012E0
7,821754583E1;-7,276248932E-1;-8,433427811E-1;2,071295977E0
7,831754583E1;1,686639786E-1;-2,965619087E0;-6,654524803E-1
7,841754583E1;1,109847069E0;-4,443397522E-1;1,393499374E0
7,851754583E1;-3,033848047E0;1,725697398E0;3,320314884E0
7,861754583E1;-2,725172043E0;1,552159548E0;8,586168289E-2
7,871754583E1;4,627141953E0;-2,547424316E0;2,642428637E0
7,881754583E1;2,317996025E0;-2,904492855E0;-3,707937002E0
7,891754583E1;7,955582142E-1;2,024170876E0;-2,852468729E0
7,901754583E1;4,121133804E0;-2,628696442E0;-2,521879911E0
7,911754583E1;-9,676742554E-1;1,393442631E0;3,191671610E0
7,921754583E1;-2,265837908E0;-2,014572144E0;2,529444218E0
7,931754583E1;-1,043114662E0;-1,231952667E0;3,214903355E0
7,941754583E1;-3,567793608E0;4,137187958E0;2,876158714E0
7,951754583E1;-2,273713350E0;1,512673855E0;-7,314729691E-2
7,961754583E1;-1,304584026E0;1,601678371E0;1,196812391E0
7,971754583E1;3,778155565E0;-4,188937187E0;1,787023544E-1
7,981754583E1;5,691347122E0;-4,642276764E-1;-3,259144306E0
7,991754583E1;1,881284714E-1;-2,441755295E0;-2,901276588E0
8,001754583E1;3,161427021E0;-2,196282387E0;-2,378969193E-1
8,011754583E1;1,195869446E-1;-4,313869476E-1;2,413048744E-1
8,021754583E1;-2,226352692E-1;-3,281616926E0;1,323909283E0
8,031754583E1;-1,955410957E0;1,599903107E0;3,543622255E0
8,041754583E1;6,300120354E-1;1,257205486E0;-1,313023567E-1
8,051754583E1;2,622219563E0;-3,383221626E-1;-2,541791916E0
8,061754583E1;4,425502777E0;-4,356620789E0;-3,072443008E0
8,071754583E1;2,145980120E0;9,581851959E-1;-5,284212589E0
8,081754583E1;2,591346264E0;-3,247156620E0;1,432634830E0
8,091754583E1;2,849327564E0;-4,375448227E-1;2,679176569E0
8,101754583E1;-8,551702499E-1;-2,402768135E-1;2,103495121E0
8,111754583E1;-1,696537018E0;-1,509762049E0;3,915887117E0
8,121754583E1;-2,488451004E0;4,264619827E0;3,271499395E0
8,131754583E1;-8,859853745E-1;-4,705440044E0;-2,523394108E0
8,141754583E1;-5,710020065E-1;1,999435902E0;8,952140808E-3
8,151754583E1;6,294959545E0;-4,749693871E0;-6,160691261E0
8,161754583E1;1,748730183E0;9,470520020E-1;-1,357571363E0
8,171754583E1;3,517351151E-1;-2,004656315E0;4,069881439E-1
8,181754583E1;-1,635637283E0;1,193757057E-1;1,648478508E-1
8,191754583E1;-2,691599369E0;8,013725281E-3;2,312533379E0
8,201754583E1;-4,477585793E0;1,035970211E0;3,256860495E0
8,211754583E1;-1,314152241E0;3,207915783E0;1,565701962E0
8,221754583E1;1,489352703E0;-6,070308685E-1;-6,118122578E0
8,231754583E1;3,695278406E0;-3,065306664E0;-5,208106995E0
8,241754583E1;-1,249105930E0;1,651274681E0;-2,248858929E0
8,251754583E1;-1,977521896E0;-2,254590988E0;7,410404682E-1
8,261754583E1;1,824660778E0;-2,164578438E0;7,203292847E-2
8,271754583E1;8,996348381E-1;-3,271746635E-1;9,692416191E-1
8,281754583E1;-1,155469894E0;1,120770931E0;3,501431465E0
8,291754583E1;-4,243942261E0;1,857126832E0;9,581594467E-1
8,301754583E1;-2,319555283E-1;5,104069710E-1;7,251770973E0
8,311754583E1;-6,797158718E-1;-2,973644733E0;3,651753426E0
8,321754583E1;1,872313738E0;-1,020708084E-1;-1,629018307E0
8,331754583E1;7,674213886E0;-3,048112869E0;-7,636334419E0
8,341754583E1;-2,743077278E-1;-2,146312714E0;-3,855705261E-2
8,351754583E1;2,003659248E0;-1,024249077E0;-2,786926746E0
8,361754583E1;-7,053112984E-1;-2,238368988E-1;2,078041553E0
8,371754583E1;5,036945343E-1;-8,137643337E-1;7,645058632E-1
8,381754583E1;-1,774220943E0;6,283903122E-2;6,549533844E0
8,391754583E1;-3,116266966E0;2,473708391E0;2,839626312E0
8,401754583E1;3,030467033E-1;-4,999583244E0;7,551109791E-1
8,411754583E1;5,482978821E0;-2,558449745E0;-3,675311565E0
8,421754583E1;2,389724970E0;3,841438293E-1;-5,480530739E0
8,431754583E1;-2,243516207E0;-4,368935585E0;5,363082886E-2
8,441754583E1;4,945659637E-1;-2,926851749E0;2,599402905E0
8,451754583E1;4,246253967E-1;-1,299816608E0;1,049830437E0
8,461754583E1;-4,274923325E0;1,915615082E0;4,837781906E0
8,471754583E1;-1,523253441E0;7,756185532E-2;4,991545677E0
8,481754583E1;-6,408443451E-1;6,030297279E-1;4,047466278E0
8,491754583E1;-1,022158861E0;-5,961184025E0;-1,904901981E0
8,501754583E1;4,367190361E0;-6,036471367E0;-7,845088959E0
8,511754583E1;2,803015947E0;-4,141489983E0;-3,480518341E0
8,521754583E1;1,917437553E0;-1,382699013E-1;-5,809984207E0
8,531754583E1;7,091774940E-1;-2,387819767E0;-4,260314941E0
8,541754583E1;1,943650723E0;-2,090173721E0;2,361590862E0
8,551754583E1;-1,957965612E0;6,696060658E0;1,585296154E0
8,561754583E1;-3,026587248E0;3,412953854E0;-3,764095306E-1
8,571754583E1;-6,490674019E-1;-1,393561363E-1;4,876381397E0
8,581754583E1;1,146187782E0;-2,670078278E0;5,539155006E-1
8,591754583E1;5,090825081E0;-5,771484375E0;-7,796546936E0
8,601754583E1;-7,985153198E-1;-9,697532654E-1;4,151109695E0
8,611754583E1;3,905844688E-1;3,132610321E-1;9,483850002E-1
8,621754583E1;3,098505974E0;-4,572693825E0;-2,058631897E0
8,631754583E1;-3,293642282E0;1,997084141E0;1,567757607E0
8,641754583E1;-4,057470798E0;-7,490446568E-1;5,036606789E-1
8,651754583E1;-2,186446190E-1;2,288356543E0;1,069293022E0
8,661754583E1;-1,112694263E0;-2,889218330E0;-4,864790916E0
8,671754583E1;4,705594063E0;-5,823324203E0;-1,665301085E0
8,681754583E1;8,152556419E-1;-6,005582809E-1;5,814299583E-1
8,691754583E1;3,487618923E0;-3,793979168E0;2,739779949E-1
8,701754583E1;-1,870694160E0;3,831515312E-1;1,006731510E0
8,711754583E1;-5,001206398E-1;-4,785060883E0;3,491287708E0
8,721754583E1;-2,340613842E0;6,556907177E0;5,095914364E0
8,731754583E1;-1,102796078E0;-5,964803696E-2;3,524368763E0
8,741754583E1;2,288576126E0;-3,061755657E0;6,016635895E-1
8,751754583E1;-1,900262594E0;-1,646885872E0;-3,388096809E0
8,761754583E1;3,303904533E-1;5,383782387E-1;-7,999663353E-1
8,771754583E1;7,305633545E0;-3,417748928E0;-5,104341030E0
8,781754583E1;-7,042789459E-2;8,329458237E-1;1,588046551E0
8,791754583E1;-1,763461351E0;-1,106879950E0;3,383030415E0
8,801754583E1;-9,122644424E0;3,643478155E0;5,357967377E0
8,811754583E1;3,594856262E0;-4,661784649E0;-1,753587723E0
8,821754583E1;1,876843929E0;-6,332521439E-1;-2,519538879E0
8,831754583E1;-2,397413254E-1;5,571851730E-1;-1,013784409E0
8,841754583E1;1,228666306E-1;-1,568121910E0;-1,356149673E0
8,851754583E1;3,962531090E-1;-6,691336632E-1;-2,317452431E0
8,861754583E1;-2,923139095E0;3,759946823E-1;2,196128845E0
8,871754583E1;-2,526588440E0;1,473689079E-1;4,089396000E0
8,881754583E1;-4,680453300E0;5,204185963E0;4,900313377E0
8,891754583E1;3,835307121E0;-4,978915215E0;3,196988583E0
8,901754583E1;-4,275140762E-1;1,567345619E0;-2,659317732E0
8,911754583E1;1,524320602E0;-2,430949211E0;3,717350245E0
8,921754583E1;-1,313807011E0;-1,034520626E0;8,985884190E-1
8,931754583E1;-7,220821381E-1;-4,279794693E-1;3,888039589E-1
8,941754583E1;5,895547867E-1;9,299542904E-1;2,121462345E0
8,951754583E1;-5,038980961E0;3,976575136E0;5,939490318E0
8,961754583E1;7,176399231E-2;-1,931535244E0;3,354389668E0
8,971754583E1;6,774983406E0;-7,103290558E-1;-7,966538906E0
8,981754583E1;3,875726700E0;1,383898735E0;-7,709395885E-1
8,991754583E1;3,127642155E0;-2,262585640E0;-4,861490726E-1
9,001754583E1;-2,609250307E0;-2,568933010E0;1,034945011E0
9,011754583E1;1,720113754E-1;-4,306939602E0;7,664103508E-1
9,021754583E1;-2,755176306E0;4,794382095E0;-1,069543839E0
9,031754583E1;-6,243993759E0;4,319825172E0;2,563475609E0
9,041754583E1;6,692600250E-2;2,499852180E-1;5,435752869E-1
9,051754583E1;7,318501472E-1;-2,918550014E0;-2,648932934E-1
9,061754583E1;-7,279531956E-1;-5,044217110E0;-3,513347626E0
9,071754583E1;6,166934967E-3;1,322390556E0;-4,282922745E-1
9,081754583E1;4,675980568E0;-9,136071205E-1;-4,251758099E0
9,091754583E1;-1,606269836E0;-6,565375328E-1;2,026605606E-2
9,101754583E1;4,708766937E-3;9,795801640E-1;8,596725464E-1
9,111754583E1;-4,538349152E0;4,345052719E0;-1,472449780E0
9,121754583E1;-1,152815819E0;9,393615723E-1;-1,476383209E-2
9,131754583E1;4,002771378E0;-3,811719894E0;-1,685347557E0
9,141754583E1;4,377028465E0;1,776227951E-1;-2,140582561E0
9,151754583E1;-6,522450447E-1;-1,503076077E0;-1,658667088E0
9,161754583E1;2,483410835E0;-2,028085232E0;1,383910179E-1
9,171754583E1;-4,616165161E-2;-3,277329445E0;3,938050270E-1
9,181754583E1;-5,598565578E0;2,294082880E0;4,546916008E0
9,191754583E1;2,667012215E0;8,713333607E-1;-3,293695450E-1
9,201754583E1;-1,119415998E0;-1,262135506E-1;-1,171114445E0
9,211754583E1;5,191230774E0;2,336275101E0;-5,939388275E-1
9,221754583E1;5,373785019E0;-1,980569839E0;-3,802995205E0
9,231754583E1;7,130336761E-2;-1,572551727E0;1,040496111E0
9,241754583E1;2,338366508E-1;-4,619278908E-1;8,924303055E-1
9,251754583E1;-9,532084465E-1;-6,645274162E-1;-1,129886627E0
9,261754583E1;-4,462764740E0;6,741261482E-1;4,981729031E0
9,271754583E1;-1,634894848E0;3,272906780E0;2,514161825E0
9,281754583E1;1,936526299E0;-4,096804619E0;2,148105860E0
9,291754583E1;3,458431482E0;7,025194168E-1;-1,077587605E-1
9,301754583E1;4,924722195E0;-3,508603096E0;-6,172739983E0
9,311754583E1;7,207345963E-2;1,358932972E0;2,237307787E0
9,321754583E1;-1,638170242E0;-5,679469109E-1;-7,547402382E-1
9,331754583E1;1,833065033E0;-3,722885132E0;7,759661674E-1
9,341754583E1;-7,632781029E0;4,730848312E0;4,554640293E0
9,351754583E1;-3,145883083E0;1,102402210E0;-9,487047195E-1
9,361754583E1;1,898288727E-1;-1,794489384E0;-2,522263527E0
9,371754583E1;2,074078560E0;-2,719345093E-1;-5,815174580E-1
9,381754583E1;5,798602581E0;-3,372525215E0;-3,936324358E0
9,391754583E1;1,488914490E-1;-5,376524925E-1;-1,244330406E0
9,401754583E1;1,138934135E0;-1,490376472E0;-3,384613991E-1
9,411754583E1;-7,238535881E-1;-6,433768272E-1;2,366121769E0
9,421754583E1;-2,874772310E0;1,674623489E-1;2,707753658E0
9,431754583E1;-1,165616989E0;2,313979864E0;2,582512140E0
9,441754583E1;-6,084055901E-1;-2,197863579E0;-3,618764877E-2
9,451754583E1;1,511906147E0;2,669166088E0;-2,787590504E0
9,461754583E1;2,850319147E0;-2,060011864E0;1,572749615E0
9,471754583E1;9,999275208E-4;-1,553465843E0;9,800648689E-2
9,481754583E1;2,382015228E0;1,267313957E-1;-1,053606987E0
9,491754583E1;2,475242615E-1;6,957321167E-1;8,498353958E-1
9,501754583E1;-3,100321770E0;-1,092123508E0;3,876757145E0
9,511754583E1;-5,593338013E-1;2,625309467E0;1,418498993E0
9,521754583E1;-4,018883705E-1;2,003873587E0;2,301855087E-1
9,531754583E1;3,170804501E0;-2,394639492E0;-7,472965717E-1
9,541754583E1;4,258084297E-2;1,652689934E0;-6,855065823E-1
9,551754583E1;-5,433449745E-1;-1,634559631E-1;-8,738758564E-1
9,561754583E1;5,548310280E-1;7,139658928E-1;6,096491814E-1
9,571754583E1;-6,138863564E-1;-6,068420410E-2;-2,491245270E-1
9,581754583E1;-1,197267056E0;1,294469833E-1;1,826658726E0
9,591754583E1;-4,068662643E0;2,730091572E0;3,981731892E0
9,601754583E1;8,886656761E-1;2,660550594E0;1,515041351E0
9,611754583E1;2,908303261E0;-4,586439133E0;-2,540840626E0
9,621754583E1;3,683819294E0;-5,379228592E-1;-2,986447334E0
9,631754583E1;1,864976883E-1;-1,627376556E0;-3,358257294E0
9,641754583E1;-1,365456581E0;-2,049016953E-1;1,040373087E0
9,651754583E1;2,226988316E0;-2,831387520E-1;-3,923797607E-1
9,661754583E1;-1,058365345E0;-1,953434944E-1;2,714793682E0
9,671754583E1;-2,090882301E0;-2,499918461E0;1,581719398E0
9,681754583E1;-8,894762993E-1;3,423318148E0;2,762772083E0
9,691754583E1;-1,222612858E0;1,649030685E0;-2,232241631E0
9,701754583E1;3,231314421E0;-1,651573181E-2;2,006504536E-1
9,711754583E1;6,765861511E0;-6,906923294E0;-5,103441238E0
9,721754583E1;-1,160039902E-1;-8,881850243E-1;7,379026413E-1
9,731754583E1;3,360659122E0;-1,566236019E0;-7,616062164E-1
9,741754583E1;-7,728042603E-1;-7,859654427E-1;1,999162197E0
9,751754583E1;-5,044157982E0;8,255991936E-1;4,425817490E0
9,761754583E1;-5,057013512E0;3,297016621E0;3,354544640E-1
9,771754583E1;1,164932251E-1;-3,333699226E0;-5,674972534E-1
9,781754583E1;2,428018093E0;-4,946285725E0;-3,592176914E0
9,791754583E1;1,904880524E0;-2,199938774E0;-3,337575197E0
9,801754583E1;1,986546516E0;-4,123311043E-1;-3,329241991E0
9,811754583E1;3,386630058E0;-1,661710262E0;1,303606033E-1
9,821754583E1;-2,976870537E0;1,673164845E0;1,568088055E0
9,831754583E1;-5,953092575E-1;-1,738539696E0;-7,318878174E-1
9,841754583E1;-3,382803440E0;3,776142597E-1;4,412988663E0
9,851754583E1;-8,997900963E0;1,862884760E0;5,526963711E0
9,861754583E1;-8,460135460E-1;-6,320520878E0;-9,939670563E-3
9,871754583E1;6,552769661E0;-6,227006912E0;-6,356559753E0
9,881754583E1;4,550167561E0;-2,507152557E-1;-3,152860403E0
9,891754583E1;2,838214874E0;-9,494714737E-1;-3,649353981E-1
9,901754583E1;-1,008607864E0;2,027535439E0;1,913103580E0
9,911754583E1;-5,643510818E-2;-5,182523727E-1;8,173966408E-1
9,921754583E1;-9,367964745E0;1,356570244E0;4,593410969E0
9,931754583E1;-1,435470581E0;-2,856381893E0;1,624921799E0
9,941754583E1;2,101657391E0;-5,832958221E-1;6,688706875E-1
9,951754583E1;3,427618265E0;5,842437744E-1;-5,045964718E0
9,961754583E1;8,557496071E-1;-9,552478790E-1;5,267615318E-1
9,971754583E1;4,122216702E0;-1,692099571E0;-7,668352127E-1
9,981754583E1;9,906663895E-1;-3,382399559E0;-1,929693699E0
9,991754583E1;2,992447376E0;-4,786683083E0;8,808383942E-1
1,000175458E2;-1,181713295E1;6,977933884E0;8,247821808E0
1,001175458E2;8,611245155E-1;6,839179993E-2;-1,354537010E-1
1,002175458E2;-1,775255203E-1;-9,207107544E0;-1,451080799E0
1,003175458E2;7,729663849E-1;7,473931789E0;-2,393295050E0
1,004175458E2;-1,265164852E0;-1,031190872E0;-3,024988413E0
1,005175458E2;3,374691963E0;-8,709616661E-1;1,092775822E0
1,006175458E2;-8,335738182E-1;-1,942036152E0;6,631832123E-1
1,007175458E2;-3,918685913E-1;-3,111619949E-1;1,896085739E0
1,008175458E2;-6,928519726E0;3,038693905E0;4,581271172E0
1,009175458E2;-1,521630287E-1;1,537485123E-1;1,000414371E0
1,010175458E2;-1,593174934E-1;2,094988823E-1;-1,248706818E0
1,011175458E2;1,912455082E0;-4,237338066E0;-2,300060749E0
1,012175458E2;4,789357185E-1;8,579425812E-1;2,039386988E0
1,013175458E2;-3,300542831E-1;3,184900284E-1;4,006967545E-1
1,014175458E2;3,455523968E0;-2,478162289E0;-1,209023952E0
1,015175458E2;-2,943252325E0;2,308351994E0;2,581757069E0
1,016175458E2;-5,057040215E0;2,419605732E0;5,084811687E0
1,017175458E2;-8,129262924E-1;3,385138512E0;7,846269608E-1
1,018175458E2;9,028506279E-1;-3,599753380E0;2,430082321E0
1,019175458E2;5,145102024E0;-1,360944748E0;-2,702769995E0
1,020175458E2;2,201618433E0;7,535748482E-1;-3,849792242E0
1,021175458E2;-3,053020954E0;-3,685913086E-1;3,372497082E0
1,022175458E2;-4,890341759E-1;8,449926376E-1;-1,693239212E0
1,023175458E2;-1,949799061E0;-1,454353333E-2;1,468657970E0
1,024175458E2;3,994803429E-1;-2,927179813E0;2,722246170E0
1,025175458E2;-2,609429359E0;3,910558224E0;2,507318020E0
1,026175458E2;-1,570701599E0;-1,088279724E0;-9,357676506E-1
1,027175458E2;3,625634193E0;-1,060090065E-1;-9,045176506E-1
1,028175458E2;2,499605417E0;-2,476292610E0;-2,566318750E0
1,029175458E2;6,901226044E-1;-1,334012985E0;-3,228571415E-1
1,030175458E2;6,541471481E-1;1,364923000E0;8,029775620E-1
1,031175458E2;2,084003925E0;-2,258769989E0;-4,044981003E-1
1,032175458E2;-1,403995514E0;2,231578827E-1;2,790773869E0
1,033175458E2;-4,290326118E0;1,792381763E0;4,079112053E0
1,034175458E2;-1,346247196E0;1,597796440E0;2,055151463E0
1,035175458E2;2,253113270E0;-2,814932823E0;5,036575794E-1
1,036175458E2;9,929935932E-1;-1,245672226E0;-2,707743406E0
1,037175458E2;2,791899920E0;7,207660675E-1;-1,063395739E0
1,038175458E2;2,504777908E0;-4,060316563E0;2,986132145E0
1,039175458E2;-1,701522827E0;1,452022076E0;2,115051270E0
1,040175458E2;-6,934089661E-1;-1,896598816E0;-1,800470352E-1
1,041175458E2;-4,171287537E0;2,656496525E0;4,711213112E0
1,042175458E2;1,821397305E0;-1,790041447E0;3,235151529E0
1,043175458E2;2,495724201E0;-8,334064484E-2;-2,202643156E0
1,044175458E2;4,571965694E0;-1,956164360E0;-4,325991154E0
1,045175458E2;-3,803243637E-1;4,186363220E-1;5,441427231E-3
1,046175458E2;3,682648659E0;-3,103105068E0;-3,981348991E0
1,047175458E2;5,817413330E-5;-6,314148903E-1;-9,846782684E-2
1,048175458E2;-5,009268284E0;1,885640025E0;5,117529869E0
1,049175458E2;-2,791737080E0;3,526707888E0;3,816516638E0
1,050175458E2;1,818920135E0;1,547336578E-3;3,900909424E-2
1,051175458E2;7,169728279E0;-5,734781265E0;-3,068726540E0
1,052175458E2;3,559213161E0;-1,389335632E0;-3,024268150E-2
1,053175458E2;5,461044312E-1;-9,277973175E-1;-2,908069134E0
1,054175458E2;3,230529308E0;-3,031202316E0;5,970706940E-1
1,055175458E2;-5,775089264E-1;-7,356171608E-1;2,579017162E0
1,056175458E2;-4,379091740E0;4,695506096E0;5,158911228E0
1,057175458E2;-2,834281921E-1;3,907382965E0;1,597484589E0
1,058175458E2;2,580251217E0;-1,875878811E0;-2,174787521E0
1,059175458E2;7,009280205E0;-6,088215828E0;-2,332429409E0
1,060175458E2;4,610593796E0;-5,245704651E-1;-1,239045858E0
1,061175458E2;7,714195251E-1;-4,685860634E0;-1,189670086E0
1,062175458E2;1,823724270E0;-4,973986149E0;1,820444822E0
1,063175458E2;-6,780204773E-1;4,320158958E-1;2,793245792E0
1,064175458E2;-1,836999893E0;2,463589668E0;1,543296337E0
1,065175458E2;-2,726116180E-1;3,412643909E0;-3,029098511E-1
1,066175458E2;-3,524227142E-1;-1,612310410E0;1,029038429E-1
1,067175458E2;3,702423334E0;3,191213608E-1;2,910306454E-1
1,068175458E2;8,568596840E-2;1,134871483E0;2,279449463E0
1,069175458E2;2,170343399E0;-4,475636959E0;-2,020924330E0
1,070175458E2;2,685718536E0;-1,526947021E0;-9,042296410E-1
1,071175458E2;-4,992346287E0;1,552518368E0;4,506402016E0
1,072175458E2;1,360931873E0;-1,605101585E0;2,368850708E0
1,073175458E2;-8,037563324E0;4,868985653E0;8,468868256E0
1,074175458E2;3,706809521E0;3,838662624E0;-1,946126938E0
1,075175458E2;2,274928093E-1;-6,095585823E-1;6,526193619E-1
1,076175458E2;1,122748852E0;5,286656380E0;-1,003067493E0
1,077175458E2;4,836633682E0;-4,656384468E0;-2,485568762E0
1,078175458E2;3,326808453E0;-2,023159981E0;-1,667301655E-1
1,079175458E2;1,693772793E0;7,155227661E-2;-2,365611553E0
1,080175458E2;-3,644500256E0;-1,326997757E0;2,126567841E0
1,081175458E2;-4,704450607E0;1,597439289E0;1,639260769E0
1,082175458E2;-2,578194618E0;1,942758083E0;7,476708889E-1
1,083175458E2;-3,545937538E-1;-5,804014206E-1;-1,435581207E0
1,084175458E2;3,393142700E0;-1,270843506E0;2,473440170E-1
1,085175458E2;1,575031996E0;-3,073972702E0;-3,227354765E0
1,086175458E2;-1,018073797E0;2,054700851E-1;-1,327412844E0
1,087175458E2;1,827394962E0;-1,349580765E0;-1,503350019E0
1,088175458E2;-1,475868225E-1;5,750274658E-2;-8,978481293E-1
1,089175458E2;-7,674250603E-1;2,329106331E-1;-2,912917137E-1
1,090175458E2;-3,099132299E0;-1,087431908E-1;2,634577751E0
1,091175458E2;-2,587454319E0;3,470607281E0;1,653201580E0
1,092175458E2;-6,949648857E-1;9,450817108E-1;-8,434998989E-1
1,093175458E2;-1,304330826E-1;-2,040847778E0;1,421700120E0
1,094175458E2;2,580746174E0;-3,664265633E0;-4,732178211E0
1,095175458E2;8,366446495E-1;1,541930199E0;-1,331468344E0
1,096175458E2;5,462064743E-1;-1,804294586E0;-7,623295784E-1
1,097175458E2;-2,317875862E0;4,527359009E-1;-5,234830379E-1
1,098175458E2;-1,568425655E0;7,525873184E-2;-8,110361099E-1
1,099175458E2;-5,650874138E0;1,713843584E0;5,630741119E0
1,100175458E2;-2,788012981E0;1,562001705E0;9,092822075E-1
1,101175458E2;-2,565894127E0;4,558768272E-1;4,865863323E-1
1,102175458E2;2,681984901E-1;1,250219345E-2;-1,997684956E0
1,103175458E2;2,841563702E0;-1,811847687E0;-3,322474957E0
1,104175458E2;-1,261655807E0;1,670130253E0;-2,834006548E0
1,105175458E2;2,515361786E0;-4,297551632E0;-2,567355871E0
1,106175458E2;-2,986574173E-2;-1,526705265E0;-1,138202906E0
1,107175458E2;-3,390429497E0;6,769976616E-1;2,585226059E0
1,108175458E2;-1,942928791E0;1,533356428E0;-6,508588791E-1
1,109175458E2;-1,132608891E0;1,096050978E0;4,747924805E-1
1,110175458E2;-9,041085243E-1;-2,617683411E-1;-6,301312447E-1
1,111175458E2;2,899353504E0;-2,053317070E0;-2,923485041E0
1,112175458E2;3,225771904E0;-2,189016342E-1;-1,624952316E0
1,113175458E2;-1,419549465E0;-1,312507629E0;-3,465037107E0
1,114175458E2;1,164538383E0;-4,016731262E0;-4,142536640E0
1,115175458E2;-3,419461250E-1;-2,467016697E0;-7,033703327E-1
1,116175458E2;-9,607723236E0;8,823430538E-1;5,745934486E0
1,117175458E2;1,325375080E0;1,924863815E0;-2,228001595E0
1,118175458E2;-2,329737186E0;-4,536662102E-1;-8,710525036E-1
1,119175458E2;2,003002644E0;-9,002637863E0;-9,467325211E0
1,120175458E2;3,288860321E0;-1,986750603E0;-1,184598446E0
1,121175458E2;2,300918579E0;-2,721434593E0;2,731815815E0
1,122175458E2;1,637855053E0;-7,154731750E-1;1,097809792E0
1,123175458E2;-4,026508331E-2;-2,471942425E0;5,721549988E-1
1,124175458E2;-5,498841286E0;2,173208714E0;4,393362522E0
1,125175458E2;-2,351320267E0;1,715468168E0;2,346742153E0
1,126175458E2;-7,724661827E-1;-2,290881634E0;4,023082256E-1
1,127175458E2;2,152503014E0;-4,617079735E0;-1,580351591E0
1,128175458E2;1,120618343E0;-6,569375992E-1;-9,329016209E-1
1,129175458E2;-5,928807259E-1;-6,470298767E-1;4,713283539E0
1,130175458E2;3,235682011E0;-4,047514439E0;2,032264709E0
1,131175458E2;-9,508605003E-1;4,296207428E-1;1,849912643E0
1,132175458E2;-3,889813423E0;1,009543419E0;3,328645945E0
1,133175458E2;-4,406902313E0;-1,999497414E-1;5,283811569E0
1,134175458E2;-9,839353561E-1;2,274182320E0;-7,033472061E-1
1,135175458E2;-2,635666847E0;-6,291494370E-1;6,191062927E-2
1,136175458E2;5,969970226E0;-6,983322144E0;-4,661276340E-1
1,137175458E2;9,979052544E-1;4,684882164E-1;5,841367245E-1
1,138175458E2;1,591181278E0;-6,051011086E-1;2,945957184E-1
1,139175458E2;1,353912354E0;-1,190971851E0;6,092333794E-1
1,140175458E2;-4,796743393E-1;-1,099713326E0;1,149386883E0
1,141175458E2;-9,835109711E-1;-3,363082409E-1;2,779730797E0
1,142175458E2;-3,824450493E0;2,574322701E0;4,567898273E0
1,143175458E2;-1,588995457E0;7,616806030E-1;1,313336849E0
1,144175458E2;-2,532477379E-1;-1,431733131E0;1,149913311E0
1,145175458E2;1,496429443E0;-1,164211273E0;-2,594827414E0
1,146175458E2;1,717980862E0;-8,167829514E-1;7,313833237E-1
1,147175458E2;-1,872754812E0;-8,866062164E-1;2,766156673E0
1,148175458E2;1,933472633E0;-2,375034809E0;-3,790578842E-1
1,149175458E2;-6,645984650E-1;-1,368176460E0;1,102445126E0
1,150175458E2;-1,919689178E0;-6,827058792E-1;2,818705320E0
1,151175458E2;-3,144625425E0;2,937091827E0;3,018934250E0
1,152175458E2;-1,564616203E0;1,068849564E-1;1,958146095E-1
1,153175458E2;4,404697418E-1;-2,247622967E0;-2,260065079E-1
1,154175458E2;3,531198978E0;7,314271927E-1;-1,182277441E0
1,155175458E2;1,746359587E0;-9,059715271E-1;-5,068145752E0
1,156175458E2;1,641831398E-1;-1,855151653E0;4,053182602E-1
1,157175458E2;-2,344449282E0;7,249097824E-1;-2,395510674E-1
1,158175458E2;-6,324701309E-1;-1,226844788E0;6,493477821E-1
1,159175458E2;-3,405343056E0;1,459274530E0;3,908577204E0
1,160175458E2;-2,604733706E0;1,079420567E0;2,118668556E0
1,161175458E2;-1,172156334E-1;-1,141005993E0;8,951830864E-1
1,162175458E2;2,034614086E0;-2,871302605E0;-4,689207077E-1
1,163175458E2;2,381086111E0;-8,329544067E-1;-2,266004086E0
1,164175458E2;1,784121990E0;-4,071741104E-1;-5,082631111E-2
1,165175458E2;1,891900539E0;-1,184956074E0;1,031400442E0
1,166175458E2;1,686193943E0;-3,335851192E0;1,127560139E0
1,167175458E2;-1,693281651E0;-9,105949402E-1;1,323999405E0
1,168175458E2;-3,710647106E0;2,489964247E0;4,763616562E0
1,169175458E2;-1,403355122E0;8,395147324E-2;-1,177575588E0
1,170175458E2;-7,418451309E-1;-1,188790798E0;5,317306519E-1
1,171175458E2;5,629147530E0;-5,850083351E0;2,609215498E0
1,172175458E2;3,055492640E0;-1,620736122E0;4,067132473E-1
1,173175458E2;6,164550781E-2;-8,918666840E-1;3,654320240E-1
1,174175458E2;1,712065697E0;-2,502107620E0;-1,076765537E0
1,175175458E2;2,180099487E-2;-1,245049000E0;1,865012646E0
1,176175458E2;-2,702232838E0;-1,628875732E-2;3,337494850E0
1,177175458E2;-5,297875881E0;2,083020449E0;3,060031652E0
1,178175458E2;-2,186584949E0;-1,839467525E0;1,813885212E0
1,179175458E2;2,763355732E0;-4,568442345E0;-1,382379770E0
1,180175458E2;3,550627470E0;-1,765185356E0;-1,641058922E0
1,181175458E2;1,793335915E0;-2,872467041E-1;-1,373455524E0
1,182175458E2;1,576797009E0;-1,836546421E0;-2,820611000E-1
1,183175458E2;5,504488945E-1;-2,412117481E0;1,128082752E0
1,184175458E2;-1,428047657E0;-9,584531784E-1;2,072527885E0
1,185175458E2;-5,525256157E0;1,798788071E0;3,991752148E0
1,186175458E2;-9,164214134E-1;6,238894463E-1;1,816911697E0
1,187175458E2;-4,795708656E-1;-2,722419262E0;-1,011502981E0
1,188175458E2;4,923281670E0;-3,560902596E0;-5,851635933E-1
1,189175458E2;3,963740587E0;-2,226104736E-1;-2,124627113E0
1,190175458E2;-5,782890320E-2;4,190921783E-3;-2,596151829E0
1,191175458E2;4,380249977E-1;-1,154881954E0;4,392242432E-2
1,192175458E2;-1,741708755E0;-4,695119858E-1;-2,884340286E-2
1,193175458E2;4,726462364E-1;7,083220005E0;3,862476349E-2
1,194175458E2;-7,268670559E0;-3,439993382E0;2,375382662E0
1,195175458E2;-1,752251148E0;-2,254836559E0;-4,609131813E-1
1,196175458E2;4,221733093E0;-2,234584808E0;-2,857318878E0
1,197175458E2;1,513397694E0;8,062133789E-1;4,605875015E-1
1,198175458E2;2,805896759E0;-3,150320530E0;-6,908800602E-1
1,199175458E2;-2,796211243E-1;-1,255006790E0;1,250135183E0
1,200175458E2;5,522775650E-1;-1,093226910E0;8,681178093E-1
1,201175458E2;-3,009519100E0;5,408204079E0;1,814044476E0
1,202175458E2;-4,674992085E0;-1,780889511E0;1,958110332E0
1,203175458E2;-3,096845627E0;1,258645535E0;9,770350456E-1
1,204175458E2;1,176530361E0;-5,466725349E0;-1,864228010E0
1,205175458E2;8,587768078E-1;3,485578060E0;-5,893540382E-1
1,206175458E2;-1,011737823E0;-3,034626484E0;-2,514200449E0
1,207175458E2;2,786669731E0;-5,057605267E0;1,396497250E0
1,208175458E2;1,955993652E0;2,608117819E0;4,017076492E-1
1,209175458E2;-7,209043503E-1;-9,377367496E-1;1,648805618E0
1,210175458E2;-4,181913853E0;3,268642664E0;5,165410995E0
1,211175458E2;6,364507675E-1;-2,074899673E-1;1,163814068E0
1,212175458E2;8,109521866E-2;-3,499150276E-1;-5,703372955E-1
1,213175458E2;2,063998222E0;-3,976659775E-1;-1,721402407E0
1,214175458E2;1,142365932E0;-4,526615143E-1;-2,281645298E0
1,215175458E2;1,010682106E0;-2,801224232E0;-1,346979141E0
1,216175458E2;3,851537704E-1;-1,474312305E0;7,295880318E-1
1,217175458E2;-1,919517517E0;3,735737801E-1;2,602527618E0
1,218175458E2;-5,264741421E0;2,388765574E0;1,410035133E0
1,219175458E2;-8,562107086E-1;-1,152366161E0;1,165359974E0
1,220175458E2;-1,425374508E0;1,761432648E0;6,390058994E-1
1,221175458E2;6,606531620E0;-6,822811127E0;-2,474746227E0
1,222175458E2;2,340106487E0;-7,713871002E-1;-3,509256840E-1
1,223175458E2;-1,987218857E-1;-7,291460037E-1;-3,022027016E-2
1,224175458E2;-3,420491219E-1;-1,575843334E0;-4,453897476E-2
1,225175458E2;1,268539429E-1;-1,148940563E0;1,092162609E0
1,226175458E2;-2,034759045E0;-1,388030052E0;1,470851898E-1
1,227175458E2;-4,225086212E0;4,376149178E-1;2,105216503E0
1,228175458E2;1,335869789E0;2,281811953E0;1,172719002E-1
1,229175458E2;-1,336117744E0;2,054852486E0;-4,860959053E-1
1,230175458E2;2,937167645E0;-4,504711151E0;-2,460825443E-1
1,231175458E2;1,513588428E0;-1,242114067E0;-2,854130983E0
1,232175458E2;1,107922077E0;-5,152053833E-1;1,143300533E-1
1,233175458E2;3,972902298E-1;1,395356655E0;2,115769863E0
1,234175458E2;2,110363483E0;-2,499782562E0;-1,918039322E0
1,235175458E2;8,381171227E-1;-2,896312714E0;1,321434975E-1
1,236175458E2;-4,231421471E0;2,072274208E0;4,450484753E0
1,237175458E2;-3,378655195E0;-2,157616615E-1;1,678390980E0
1,238175458E2;-1,375126839E-1;-2,716757774E0;1,151316643E0
1,239175458E2;3,387086868E0;-1,501024246E0;-9,340486526E-1
1,240175458E2;5,448102951E-1;-1,793861389E-3;7,455532551E-1
1,241175458E2;2,131287098E0;1,299663544E0;-1,281654835E-1
1,242175458E2;2,272637367E0;-3,030173302E0;-1,291722059E0
1,243175458E2;6,989684105E-1;-2,618530273E0;-7,095608711E-1
1,244175458E2;-2,138215542E0;-7,040557861E-1;1,727829218E0
1,245175458E2;-2,747141361E0;-7,841329575E-1;2,804014206E0
1,246175458E2;-2,284326553E0;2,004225016E0;1,433498859E0
1,247175458E2;-1,654460907E0;4,399037361E-1;1,654829502E0
1,248175458E2;1,968932152E-1;-2,069470406E0;-2,126037121E0
1,249175458E2;3,174333096E0;1,141853333E-1;2,208110571E0
1,250175458E2;2,056240797E0;-3,308229446E-1;-2,798044682E-1
1,251175458E2;-9,532213211E-2;-5,864238739E-2;1,139399052E0
1,252175458E2;3,638352394E0;-4,005283833E0;-1,186993837E0
1,253175458E2;2,416820526E-1;-1,353188038E0;1,519474506E0
1,254175458E2;-2,510110378E0;1,617222548E0;3,287040234E0
1,255175458E2;-2,873642921E0;3,595405579E0;1,742877483E0
1,256175458E2;-2,426839352E0;2,071283102E0;1,080913544E0
1,257175458E2;1,375463486E0;-4,697586060E0;-2,532706261E-1
1,258175458E2;2,468370914E0;-4,891300201E-2;2,988774776E-1
1,259175458E2;1,755333662E0;-2,463054657E-1;-2,351372242E-1
1,260175458E2;-4,391527176E-2;-7,353096008E-1;-7,732942104E-1
1,261175458E2;2,429163933E0;-2,392213345E0;-1,393685341E0
1,262175458E2;4,732279778E-1;-1,415022373E0;7,849180698E-1
1,263175458E2;-2,174138069E0;-4,407949448E-1;1,098146439E0
1,264175458E2;-3,883659363E0;2,322065353E0;1,523320913E0
1,265175458E2;-6,242513657E-1;1,272697926E0;9,799585342E-1
1,266175458E2;-1,008722305E0;-1,491914272E0;-2,220845222E-2
1,267175458E2;2,883701801E0;-3,239041328E0;-3,721957922E0
1,268175458E2;5,781288147E-1;-3,656903267E0;-4,551620483E0
1,269175458E2;-1,425638199E-1;1,102922440E0;-3,331301212E-1
1,270175458E2;3,224891663E0;-3,290685177E0;-1,051120281E0
1,271175458E2;-1,482291222E-1;-8,006639481E-1;1,124563932E0
1,272175458E2;-1,903353691E0;-5,014572144E-1;4,944186211E-1
1,273175458E2;-4,366152763E0;1,891049147E0;2,428021669E0
1,274175458E2;-2,318587303E0;1,609466553E0;7,557120323E-1
1,275175458E2;-1,081427097E0;-1,180814266E0;7,550957203E-1
1,276175458E2;6,877646446E-1;-1,236343384E0;-1,339135170E0
1,277175458E2;1,922159433E0;-1,947308540E0;-2,896128416E0
1,278175458E2;8,086147308E-1;9,403686523E-1;-7,462930679E-1
1,279175458E2;8,088364601E-1;-1,819879532E0;-2,552764416E-1
1,280175458E2;1,548843384E-1;-9,190316200E-1;-3,698778152E-2
1,281175458E2;3,701200485E-1;-1,774370193E0;1,187444687E0
1,282175458E2;-2,721706152E0;1,339423180E0;4,271733284E0
1,283175458E2;-2,257025242E0;1,832591295E0;2,539112568E0
1,284175458E2;1,930441856E-1;9,776234627E-1;8,103938103E-1
1,285175458E2;3,943820000E-1;-1,709351540E-1;6,974208355E-1
1,286175458E2;4,277992725E0;-2,392136574E0;3,716471195E-1
1,287175458E2;2,303284883E0;-1,298799515E-1;1,068925142E0
1,288175458E2;1,193736076E0;-1,321014404E0;1,533607960E0
1,289175458E2;2,619966030E0;-2,020286560E0;7,159099579E-1
1,290175458E2;1,763639450E-1;-1,658845901E0;1,711331844E0
1,291175458E2;-2,260100842E0;4,604504108E-1;3,102582693E0
1,292175458E2;-3,487491608E0;2,895552397E0;3,134733915E0
1,293175458E2;1,758952141E-1;3,248643875E-1;2,020719528E0
1,294175458E2;-6,489806175E-1;3,870630264E-1;1,494576693E0
1,295175458E2;2,085763693E0;-2,121020317E0;-2,176761627E-2
1,296175458E2;2,928575993E0;-5,906991959E-1;-6,792521477E-2
1,297175458E2;-3,110349178E-1;-1,413869858E-1;2,793626785E-1
1,298175458E2;1,373211384E0;-6,283802986E-1;-3,419418335E-1
1,299175458E2;8,501267433E-1;-1,390290737E0;5,635714531E-1
1,300175458E2;-4,716148376E-1;-8,296060562E-1;5,658512115E-1
1,301175458E2;-3,752696991E0;9,561114311E-1;2,221415520E0
1,302175458E2;-9,525585175E-1;1,093385220E0;1,175529480E0
1,303175458E2;-2,494888306E-1;-1,254958153E0;7,253882885E-1
1,304175458E2;2,452899933E0;-3,168366432E0;-1,714663982E0
1,305175458E2;8,816709518E-1;-7,952690125E-2;-1,993216753E0
1,306175458E2;5,772066116E-1;-1,025182724E0;-1,267006159E0
1,307175458E2;-4,678268433E-1;-3,686857224E-1;1,865491033E0
1,308175458E2;-4,583258629E-1;4,629406929E-1;-2,223405838E-1
1,309175458E2;7,852768898E-1;-2,097147465E0;-5,687665939E-2
1,310175458E2;-4,142353535E0;3,869510174E0;3,022291899E0
1,311175458E2;-3,702730179E0;1,486282587E0;6,717410088E-1
1,312175458E2;-1,978948593E0;1,907525063E-1;1,347562790E0
1,313175458E2;1,099346161E0;-3,233170033E0;-3,713073730E-1
1,314175458E2;3,345571041E0;-1,206813812E0;-2,328515291E0
1,315175458E2;2,334567308E0;-9,526233673E-1;-9,064259529E-1
1,316175458E2;-8,233404160E-1;-4,525356293E-1;9,458088875E-2
1,317175458E2;2,697555542E0;-1,753370762E0;3,493666649E-1
1,318175458E2;-2,535738945E-1;-8,639006615E-1;1,335698843E0
1,319175458E2;-1,862026691E0;4,677505493E-1;1,832773685E0
1,320175458E2;-4,110605240E0;1,135354042E0;2,650951624E0
1,321175458E2;-3,298642159E0;2,465827227E0;2,544565201E0
1,322175458E2;1,873936653E-1;-5,177546024E0;-9,430935383E-1
1,323175458E2;3,004150391E0;-1,011245728E0;-3,580788136E0
1,324175458E2;3,396918774E0;-5,824155807E-1;-1,955383778E0
1,325175458E2;2,046337128E0;-2,474397182E0;-1,686998129E0
1,326175458E2;2,280468464E0;-2,135435104E0;4,186584949E-1
1,327175458E2;-1,553820133E0;-8,564872742E-1;2,388878822E0
1,328175458E2;-4,551062584E0;2,967077017E0;4,138950348E0
1,329175458E2;-1,753398418E0;1,426578045E0;1,191501141E0
1,330175458E2;7,307744026E-1;-3,796218395E0;-7,311542034E-1
1,331175458E2;4,016347885E0;-1,184905052E0;-1,471416235E0
1,332175458E2;4,195965767E0;7,473430634E-1;-3,956611156E-1
1,333175458E2;7,952661514E-1;-1,718405247E0;2,004618645E-1
1,334175458E2;8,616251945E-1;-1,511650562E0;-1,154744625E0
1,335175458E2;-1,834234238E0;-1,743992805E0;1,604529381E0
1,336175458E2;-5,417248249E0;1,213743210E0;2,214072943E0
1,337175458E2;-3,667149305E0;1,174765110E0;9,385356903E-1
1,338175458E2;4,395551682E-1;-2,360728264E0;7,856702805E-1
1,339175458E2;3,909734726E0;-8,888816833E-1;-1,008335352E0
1,340175458E2;8,169420242E0;-1,230539322E0;-2,533973694E0
1,341175458E2;-1,856026649E-1;-3,696184158E-1;-6,901514530E-1
1,342175458E2;-6,599154472E-1;-8,649268150E-1;-1,840637445E0
1,343175458E2;-2,755023479E0;-8,038158417E-1;7,592952251E-1
1,344175458E2;-3,013489246E0;1,677577496E-1;3,121538639E0
1,345175458E2;-3,451902866E0;2,142788887E0;1,293752670E0
1,346175458E2;-1,624736786E-1;-1,581102848E0;-6,120204926E-2
1,347175458E2;2,216960907E0;-1,619174004E0;-1,392612696E0
1,348175458E2;4,503985405E0;1,349973679E-1;-2,829680920E0
1,349175458E2;7,947831154E-1;-3,001260757E-1;-1,514450073E0
1,350175458E2;9,837846756E-1;-2,362300873E0;-2,130959511E0
1,351175458E2;-3,131783485E0;2,228403091E-2;1,740076542E-1
1,352175458E2;-9,360556602E-1;-8,088464737E-1;1,581661701E0
1,353175458E2;-5,563220024E0;3,295765877E0;1,930176020E0
1,354175458E2;-2,662687302E-1;-4,902658463E-1;6,150403023E-1
1,355175458E2;1,054626942E0;-2,111335754E0;-5,468814373E-1
1,356175458E2;2,598488808E0;3,855962753E-1;-2,325936079E0
1,357175458E2;2,634768486E-1;5,594701767E-1;-7,611873150E-1
1,358175458E2;8,258409500E-1;-1,629706383E0;-8,049216270E-1
1,359175458E2;6,627702713E-1;-2,364074707E0;5,953040123E-1
1,360175458E2;-2,312875271E0;-5,272827148E-1;1,461305141E0
1,361175458E2;-4,613713264E0;1,438256741E0;2,819754124E0
1,362175458E2;-1,297591209E0;2,019824266E0;1,899074078E0
1,363175458E2;3,043699265E-2;-7,112913132E-1;1,645228863E-1
1,364175458E2;3,756364346E0;-3,075582504E0;-1,013605356E0
1,365175458E2;3,173051834E0;-8,330745697E-1;-4,773378372E-3
1,366175458E2;-4,695730209E-1;-9,164743423E-1;2,245116234E-1
1,367175458E2;1,633605957E0;-1,318521500E0;-1,401114464E0
1,368175458E2;2,983112335E-1;-1,124350548E0;-2,881398201E-1
1,369175458E2;-4,836139202E0;1,498128891E0;3,117191792E0
1,370175458E2;-4,764756203E0;2,280729294E0;2,155747414E-1
1,371175458E2;-6,244368553E-1;-1,271929741E0;7,095975876E-1
1,372175458E2;1,811763287E0;-1,235350609E0;-6,864786148E-1
1,373175458E2;3,291724920E0;-1,055136681E0;-1,708401918E0
1,374175458E2;1,327003479E0;6,569433212E-1;-1,248233318E-1
1,375175458E2;3,133719444E0;-1,737277031E0;9,893834591E-1
1,376175458E2;4,475569725E-1;-2,230643272E0;1,454993248E0
1,377175458E2;-3,088343620E0;-1,184082031E-2;1,751024008E0
1,378175458E2;-3,546081543E0;2,681690693E0;2,546171188E0
1,379175458E2;-6,103067398E-1;2,193937302E-1;-2,283563614E-1
1,380175458E2;1,906323433E-1;-1,276961327E0;4,738926888E-1
1,381175458E2;4,306487083E0;-1,062398911E0;-1,183532953E0
1,382175458E2;2,976514816E0;-4,869604111E-1;-1,317420959E0
1,383175458E2;-8,446927071E-1;-1,598385811E0;3,532540798E-1
1,384175458E2;1,333279610E0;-1,362804413E0;-1,598829508E0
1,385175458E2;-5,042948723E-1;-7,822995186E-1;1,178508043E0
1,386175458E2;-4,148181915E0;6,775815487E-1;3,410472631E0
1,387175458E2;-2,319002628E0;2,008673191E0;2,759680748E0
1,388175458E2;3,212633133E-1;-1,168838024E0;1,061069012E0
1,389175458E2;2,146541119E0;-2,122527122E0;-1,582613707E0
1,390175458E2;3,442102671E0;-3,029212952E0;-6,457188129E-1
1,391175458E2;-4,193838596E0;2,406403542E0;2,841355324E0
1,392175458E2;3,612577438E0;-2,440680981E0;1,173461437E0
1,393175458E2;6,921772957E-1;-1,709216118E0;1,167135239E-1
1,394175458E2;-2,531762123E0;6,503064632E-1;2,396389723E0
1,395175458E2;-2,316586018E0;3,044767857E0;2,665378332E0
1,396175458E2;-1,876535416E0;1,555055141E0;4,864530563E-1
1,397175458E2;8,607687950E-1;-2,222281933E0;-1,293451786E-1
1,398175458E2;3,753974676E0;-6,859378815E-1;-1,422642231E0
1,399175458E2;1,568974972E0;-8,466882706E-1;-4,406855106E-1
1,400175458E2;4,492588043E-1;-1,157575607E0;7,093214989E-2
1,401175458E2;1,620144844E0;-1,961601257E0;-7,313818932E-1
1,402175458E2;-1,481387138E0;-1,092870712E0;1,726092100E0
1,403175458E2;-4,106467247E0;2,992844582E-1;3,747342587E0
1,404175458E2;-1,236764908E0;2,247143030E0;2,340243816E0
1,405175458E2;1,423449516E-1;-4,596953392E-1;6,166410446E-1
1,406175458E2;1,250539780E0;-2,246792793E0;-1,254810572E0
1,407175458E2;3,771368027E0;-1,220235825E-1;-1,855868578E0
1,408175458E2;2,029614449E0;3,010530472E-1;-7,149670124E-1
1,409175458E2;1,257738113E0;-1,098929882E0;3,134000301E-1
1,410175458E2;1,613150120E0;-1,121813774E0;-7,736735344E-1
1,411175458E2;-6,841840744E-1;-1,691857338E0;6,927151680E-1
1,412175458E2;-8,325078964E0;2,650580406E0;4,225031853E0
1,413175458E2;-3,074531555E-1;1,274738312E-1;2,609901428E-1
1,414175458E2;1,461863041E0;-2,873804092E0;6,549711227E-1
1,415175458E2;2,692942142E0;9,048151970E-1;-2,945265293E0
1,416175458E2;3,108633280E0;-1,536872864E0;-8,456721306E-1
1,417175458E2;5,534739494E-1;-1,658699989E0;2,084057331E-1
1,418175458E2;1,405209064E0;-2,486167908E0;-1,122285604E0
1,419175458E2;-1,245147705E0;-8,623900414E-1;9,280886650E-1
1,420175458E2;-2,312760353E0;3,365345001E-1;2,602656364E0
1,421175458E2;-4,663607597E0;3,063291788E0;2,370749474E0
1,422175458E2;-1,489533901E0;1,041802883E0;7,239234447E-1
1,423175458E2;8,437700272E-1;-2,460371494E0;-1,392123699E0
1,424175458E2;2,837434769E0;1,153873920E0;-7,278373241E-1
1,425175458E2;3,752964973E0;-8,339538574E-1;-4,919295311E-1
1,426175458E2;1,240376472E0;-1,711446762E0;6,806919575E-1
1,427175458E2;-8,524084091E-2;-1,829539776E0;-4,754483700E-1
1,428175458E2;-1,688535690E0;-1,286596298E0;2,025544643E0
1,429175458E2;-4,168135166E0;-8,744461536E-1;2,685420036E0
1,430175458E2;-2,533185959E0;4,587421417E0;2,668423176E0
1,431175458E2;4,408759594E0;-6,283799171E0;-1,212939024E0
1,432175458E2;1,735745907E0;5,243831635E0;1,708090305E-1
1,433175458E2;2,256258011E0;-1,765230179E0;-5,596804619E-2
1,434175458E2;8,879132271E-1;-1,656908989E0;4,706542492E-1
1,435175458E2;2,193716526E0;-1,058383465E0;-6,918995380E-1
1,436175458E2;1,249837875E0;-6,632075310E-1;8,222930431E-1
1,437175458E2;-1,100298405E0;-1,778404236E0;1,737236977E-1
1,438175458E2;-4,784865379E0;1,682297707E0;3,462071180E0
1,439175458E2;-8,483848572E-1;8,950543404E-1;5,886905193E-1
1,440175458E2;3,475284576E-1;-9,867110252E-1;1,636536121E-1
1,441175458E2;3,640352726E0;-1,766886711E0;-1,258226633E0
1,442175458E2;3,087595463E0;-1,013923645E0;-7,891933918E-1
1,443175458E2;-2,410750389E-1;-1,032736778E0;-1,296052933E-1
1,444175458E2;1,741446972E0;-1,250113487E0;-3,434591293E-1
1,445175458E2;-4,426875114E-1;-1,087240219E0;1,360964775E-1
1,446175458E2;-3,185042858E0;4,739665985E-2;3,099792242E0
1,447175458E2;-3,983373880E0;1,547371864E0;2,443072796E0
1,448175458E2;-9,758381844E-1;-2,260875702E-2;5,805349350E-1
1,449175458E2;5,951213837E-1;-2,050063610E0;-6,431040764E-1
1,450175458E2;4,472685337E0;-9,161796570E-1;-1,058741093E0
1,451175458E2;3,353605747E0;5,923638344E-1;-1,258386612E0
1,452175458E2;1,227159500E-1;-1,743158340E0;1,529841423E-1
1,453175458E2;1,222934723E-1;-1,641860962E0;-3,168704510E-1
1,454175458E2;-1,405489445E0;-8,293423653E-1;1,913219452E0
1,455175458E2;-3,701096058E0;1,318449259E0;2,032677412E0
1,456175458E2;-2,719540596E0;1,782848358E0;1,702811241E0
1,457175458E2;3,261957169E-1;-1,266286373E0;2,466988564E-1
1,458175458E2;1,039465427E0;-5,188379288E-1;-8,363564014E-1
1,459175458E2;2,554322720E0;-4,488258362E-1;-3,142205715E0
1,460175458E2;1,777927637E0;4,265022278E-2;-1,573824644E0
1,461175458E2;1,562908173E0;-1,528481960E0;4,359939098E-1
1,462175458E2;-9,342193604E-2;-1,506647110E0;1,103760004E0
1,463175458E2;2,086462975E-1;-2,003003597E0;9,986929893E-1
1,464175458E2;-4,830734253E0;2,521841049E0;3,673243523E0
1,465175458E2;-1,008158684E0;9,534883499E-1;3,039078712E-1
1,466175458E2;8,918700218E-1;-1,122935295E0;2,203137875E-1
1,467175458E2;3,055873871E0;-1,271609306E0;-1,400357008E0
1,468175458E2;3,845474482E0;-1,928939819E0;-8,404328823E-1
1,469175458E2;9,730191231E-1;-7,180891037E-1;-1,574282885E0
1,470175458E2;3,040019512E0;-1,683254719E0;-5,439095497E-1
1,471175458E2;-6,160321236E-1;-4,200406075E-1;1,150834560E0
1,472175458E2;-1,181433678E0;-8,834552765E-1;6,501755714E-1
1,473175458E2;-6,195023537E0;3,718346119E0;1,642251492E0
1,474175458E2;-3,118033409E-1;9,232058525E-1;-2,310643196E-1
1,475175458E2;2,549571991E-1;-4,310207367E-1;7,004451752E-1
1,476175458E2;2,375051498E0;3,749675751E-1;-6,955759525E-1
1,477175458E2;2,254897118E0;-1,832036972E-1;-1,593432426E-1
1,478175458E2;-2,855195999E-1;-1,732344627E0;-4,082512856E-1
1,479175458E2;1,947275639E0;-1,955501556E0;-2,242980003E0
1,480175458E2;-1,211743832E0;1,952128410E-1;1,991358757E0
1,481175458E2;-2,167562962E0;8,847031593E-1;2,956707954E0
1,482175458E2;-2,993537903E0;1,814514160E0;2,727355957E0
1,483175458E2;-1,853196621E0;-2,320718765E-1;1,139605045E0
1,484175458E2;8,477315903E-1;-2,766412735E0;-1,793214560E0
1,485175458E2;4,262846947E0;-1,403733253E0;-1,453018188E-2
1,486175458E2;2,014307261E0;5,031480789E-1;2,325868607E-2
1,487175458E2;-2,497549057E-1;-1,791011810E0;1,557359695E-1
1,488175458E2;9,371914864E-1;-1,710899830E0;-8,675098419E-1
1,489175458E2;-5,361638069E-1;-1,187884331E0;1,218774319E0
1,490175458E2;-4,257621288E0;-3,126850128E-1;2,533346176E0
1,491175458E2;-2,114923000E0;1,894774199E0;2,531154394E0
1,492175458E2;1,506131649E0;-1,722654819E0;-1,351827145E0
1,493175458E2;3,329071522E0;5,396080017E-2;1,048939228E-1
1,494175458E2;1,931486130E0;5,108928680E-2;-2,326023340E0
1,495175458E2;1,446588755E0;3,361206055E-1;-7,544374466E-1
1,496175458E2;3,159904480E-1;-1,528270721E0;-2,459287643E-2
1,497175458E2;-2,622251511E-1;-1,166746616E0;4,096391201E-1
1,498175458E2;-1,068372250E0;-1,079991341E0;6,505150795E-1
1,499175458E2;-4,324864864E0;1,869551182E0;2,724416971E0
1,500175458E2;-3,011196136E0;1,802129030E0;9,656360149E-1
1,501175458E2;4,297013283E-1;-1,589963913E0;3,969371319E-1
1,502175458E2;3,822456837E0;-2,125168800E0;-3,268673420E-1
1,503175458E2;1,278720379E0;-1,615636826E0;-1,846589804E0
1,504175458E2;5,899424553E-1;-1,627465248E0;-1,095400333E0
1,505175458E2;4,157947063E0;-1,350514412E0;2,993767262E-1
1,506175458E2;3,954815865E-1;-9,987249374E-1;1,641851425E0
1,507175458E2;-1,736346245E0;-9,728178978E-1;8,181595802E-1
1,508175458E2;-4,338779926E0;1,059394121E0;2,871173382E0
1,509175458E2;-2,563501835E0;3,354348660E0;1,296600342E0
1,510175458E2;1,836328030E0;-3,396775246E0;1,550579071E-2
1,511175458E2;3,230908871E0;2,266479492E0;-1,542606115E0
1,512175458E2;1,639477730E0;-2,142992973E0;-2,921105623E0
1,513175458E2;-5,151634216E-1;8,049702644E-1;8,290560246E-1
1,514175458E2;2,648397446E0;-2,164005280E0;-1,090267181E0
1,515175458E2;9,022626877E-1;-1,356446266E0;6,306879520E-1
1,516175458E2;-3,518856049E0;-4,180703163E-1;2,306104422E0
1,517175458E2;-3,911840439E0;2,008571386E0;3,490524292E0
1,518175458E2;-1,951512337E0;1,506606102E0;1,080637932E0
1,519175458E2;6,059746742E-1;-2,207548141E0;-5,456974506E-1
1,520175458E2;3,842473269E0;-1,524718285E0;-2,455112934E0
1,521175458E2;3,041611671E0;-1,463508606E0;-6,839482784E-1
1,522175458E2;-1,278496027E0;1,070637703E0;1,157550812E-1
1,523175458E2;1,136632919E0;-1,305515766E0;1,784882545E-1
1,524175458E2;-6,624302864E-1;-1,065600872E0;-9,492874146E-2
1,525175458E2;-1,928092003E0;1,642117500E-1;2,411072969E0
1,526175458E2;-3,532861948E0;2,712108850E0;1,255890131E0
1,527175458E2;-1,807541847E-1;-6,724128723E-1;5,897593498E-1
1,528175458E2;1,107828617E0;-1,877237320E0;4,183526039E-1
1,529175458E2;6,908609390E0;-5,285393715E0;-2,586763620E0
1,530175458E2;2,924775124E0;-1,189822197E0;-1,084832191E0
1,531175458E2;-5,187096596E-1;3,168835640E-1;9,908528328E-1
1,532175458E2;4,233279228E-1;-1,623968601E0;2,887368202E-2
1,533175458E2;1,473957539E0;-1,566770554E0;9,912791252E-1
1,534175458E2;-2,988872528E0;1,011074543E0;2,513547659E0
1,535175458E2;-5,569252491E0;3,391284943E0;3,044338226E0
1,536175458E2;6,071200371E-1;-1,727475166E0;9,365293980E-1
1,537175458E2;-3,182792664E-2;5,535006523E-1;2,508258820E-2
1,538175458E2;2,451374054E0;-1,231390953E0;-1,154546976E0
1,539175458E2;2,268054724E0;-8,675479889E-2;-4,609603882E-1
1,540175458E2;1,134469032E0;-1,251616478E0;7,689738274E-2
1,541175458E2;9,124174118E-1;-8,962392807E-1;2,677066326E-1
1,542175458E2;-5,484857082E0;6,200809479E-1;-5,693435669E-3
1,543175458E2;9,288387299E-1;-2,034564018E0;1,584804058E0
1,544175458E2;-1,951833725E0;8,279492378E0;5,189687729E0
1,545175458E2;-1,576849461E0;-5,993469715E0;5,430114269E-1
1,546175458E2;5,211968422E0;-1,676139832E-1;-2,332942486E0
1,547175458E2;2,408666611E0;-6,421031952E-1;-1,574121475E0
1,548175458E2;1,209237099E0;-3,325214386E-1;-9,627957344E-1
1,549175458E2;2,820478439E0;-2,484257221E0;-1,611309052E0
1,550175458E2;-1,741329670E0;-4,516677856E-1;1,595569611E0
1,551175458E2;-4,727400780E0;2,397980690E0;3,328420639E0
1,552175458E2;-1,337542534E0;2,407550573E0;1,505257845E0
1,553175458E2;-1,074662685E0;-2,673568249E0;9,984970093E-2
1,554175458E2;4,444943905E0;-1,409111023E0;-1,149227142E0
1,555175458E2;4,595740795E0;4,378728867E-1;-1,900148869E0
1,556175458E2;-3,075561523E-1;-2,309623718E0;-6,481826305E-1
1,557175458E2;-3,184785604E0;-6,722850800E-1;1,614544392E-1
1,558175458E2;-2,499526024E0;-7,350683212E-1;5,868468285E-1
1,559175458E2;-5,123344421E0;2,904783726E0;3,379741669E0
1,560175458E2;-1,940015793E0;2,800803185E-1;-5,864214897E-2
1,561175458E2;1,497673988E0;-2,422185421E0;-1,564933062E0
1,562175458E2;5,049547195E0;-1,029726028E0;-1,348674059E0
1,563175458E2;1,575580597E0;-8,733844757E-1;-2,143313885E0
1,564175458E2;1,701678753E0;-1,495577812E0;-1,941623688E-1
1,565175458E2;-3,459930420E-1;-2,973057270E0;4,110465050E-1
1,566175458E2;-3,982540131E0;4,941415787E-1;4,416309357E0
1,567175458E2;-3,526344776E0;2,435928822E0;3,112478733E0
1,568175458E2;-1,812686920E0;-2,509722710E-1;1,081941366E0
1,569175458E2;1,557754517E0;-3,036433220E0;-1,191826820E0
1,570175458E2;3,159064293E0;-1,096942902E0;-1,218468189E0
1,571175458E2;1,088188648E0;2,211065292E-1;4,206800461E-2
1,572175458E2;2,179691315E0;-2,530583858E0;-1,159091234E0
1,573175458E2;-5,650424957E-1;-1,373143196E0;1,500741482E0
1,574175458E2;-4,073253632E0;9,289500713E-1;2,991571426E0
1,575175458E2;-2,842675209E0;2,116863728E0;1,704309940E0
1,576175458E2;-3,249993324E-1;-3,288791180E0;8,193061352E-1
1,577175458E2;3,479921818E0;-1,468305588E0;-1,258676767E0
1,578175458E2;5,149419308E0;-1,056315422E0;-1,320723057E0
1,579175458E2;-5,181007385E-1;-8,032054901E-1;1,756451130E-1
1,580175458E2;2,506568909E0;-2,490958214E0;-1,407547712E0
1,581175458E2;-2,248462677E0;-1,040892124E0;1,648864746E0
1,582175458E2;-5,080095291E0;1,184769154E0;2,205022812E0
1,583175458E2;-1,244662285E0;1,863948822E0;1,931945086E0
1,584175458E2;3,597993851E-1;-2,922358990E0;-1,646924019E-1
1,585175458E2;6,314798355E0;-2,427816391E0;-1,579475641E0
1,586175458E2;4,834895134E0;-6,188640594E-1;-1,427261591E0
1,587175458E2;1,304154396E-1;-8,565559387E-1;9,113119841E-1
1,588175458E2;-3,247351646E-1;-1,966556072E0;7,785840034E-1
1,589175458E2;-2,526005745E0;-2,272524834E-1;2,462764978E0
1,590175458E2;-5,039288998E0;1,264935493E0;3,403512716E0
1,591175458E2;-1,674887180E0;1,015909195E0;8,401284218E-1
1,592175458E2;1,355610847E0;-3,369585991E0;-1,721347332E0
1,593175458E2;4,819282532E0;-1,584578514E0;-2,231629133E0
1,594175458E2;9,398107529E-1;4,145679474E-1;-1,311871529E0
1,595175458E2;1,979193687E0;-2,089806080E0;8,776140213E-2
1,596175458E2;8,092403412E-1;-2,099742889E0;-2,212207317E-1
1,597175458E2;-2,225581646E0;-8,225674629E-1;3,153560162E0
1,598175458E2;-6,270678520E0;7,965207100E-1;2,620887518E0
1,599175458E2;1,971910000E0;-1,913967133E0;-9,650635719E-2
1,600175458E2;5,134784222E0;-1,663726807E0;-2,559897423E0
1,601175458E2;1,762211323E0;6,833343506E-1;1,542064667E0
1,602175458E2;-1,003422737E-1;-9,310731888E-1;-1,112600088E0
1,603175458E2;3,108397961E0;-3,244171143E0;-2,483513117E0
1,604175458E2;-2,138245583E0;-7,623195648E-3;1,765492201E0
1,605175458E2;-4,120676041E0;1,924040794E0;3,199981451E0
1,606175458E2;-3,880469322E0;2,222903728E0;1,901906252E0
1,607175458E2;1,319724083E0;-2,729490757E0;-5,078673363E-1
1,608175458E2;5,556184769E0;-2,192547798E0;-2,628518105E0
1,609175458E2;3,359329939E0;1,042562008E0;-1,011808395E0
1,610175458E2;-5,536141396E-1;-1,879637718E0;-7,895002365E-1
1,611175458E2;4,336024761E0;-3,823044777E0;-2,041344404E0
1,612175458E2;-3,147780418E0;1,175251007E0;3,456880093E0
1,613175458E2;-5,850366592E0;1,925395012E0;3,063836813E0
1,614175458E2;-3,141182661E0;8,506288528E-1;-1,579782963E-1
1,615175458E2;1,341858864E0;-3,368077755E0;-1,420269012E0
1,616175458E2;5,558952808E0;-1,076078415E-1;-1,853879452E0
1,617175458E2;2,471113682E0;6,244926453E-1;-2,823388577E-1
1,618175458E2;1,267791748E0;-2,714146614E0;-7,384262085E-1
1,619175458E2;-1,472975731E0;-9,739656448E-1;1,356758833E0
1,620175458E2;-3,202300549E0;-2,780795097E-1;3,843216896E0
1,621175458E2;-5,439566612E0;3,172832966E0;2,719141960E0
1,622175458E2;-5,711727142E-1;-2,999672890E-1;9,198811054E-1
1,623175458E2;2,721106529E0;-1,825101852E0;-8,497946262E-1
1,624175458E2;4,529230595E0;-6,444730759E-1;-2,913114786E0
1,625175458E2;-1,741657257E-1;-1,164181709E0;-1,034234285E0
1,626175458E2;1,760615349E0;3,487601280E-1;-6,292634010E-1
1,627175458E2;1,345539093E-2;-8,401703835E-1;-3,338336945E-2
1,628175458E2;-4,950194359E0;3,396348476E0;3,903099060E0
1,629175458E2;-3,238241673E0;3,502240658E0;2,206950665E0
1,630175458E2;5,445742607E-1;-3,287744999E0;-5,006146431E-2
1,631175458E2;3,070670128E0;-1,947381020E0;-1,221371174E0
1,632175458E2;3,907865286E0;-1,066768646E0;5,912994146E-1
1,633175458E2;-2,527627945E-1;-7,643260956E-1;-9,971332550E-1
1,634175458E2;3,161813736E0;-2,771422863E0;-1,213120461E0
1,635175458E2;-8,554558754E-1;-5,303831100E-1;6,210684776E-1
1,636175458E2;-4,671046257E0;1,451366663E0;2,389528275E0
1,637175458E2;-2,454989433E0;2,232040405E0;1,108615160E0
1,638175458E2;-3,207321167E-1;-3,572504997E0;2,545933723E-1
1,639175458E2;7,164526939E0;-2,871553421E0;-1,142852068E0
1,640175458E2;7,709407806E-2;1,881093979E0;4,604752064E0
1,641175458E2;-1,589848757E0;-8,413262367E-1;-5,261356831E-1
1,642175458E2;-1,670870304E0;-1,464208126E0;-1,512429237E0
1,643175458E2;-1,434751511E0;1,416590452E0;1,845197439E0
1,644175458E2;-5,747102261E0;5,250811100E0;2,780037880E0
1,645175458E2;-2,305016041E0;-8,698348999E-1;-3,855342865E-1
1,646175458E2;9,599781036E-1;-2,298064232E-1;1,155108929E0
1,647175458E2;2,497647524E0;2,905941010E-2;-3,860305071E0
1,648175458E2;1,157001734E0;1,215431690E0;7,813129425E-1
1,649175458E2;-3,044489145E0;-9,139404297E-1;6,380589008E-1
1,650175458E2;2,804040909E-1;-6,248364449E-1;5,285513401E-1
1,651175458E2;-3,954714298E0;2,166252136E-1;4,769384384E0
1,652175458E2;-7,308608532E0;5,635456085E0;4,124873161E0
1,653175458E2;-1,413720608E0;-7,846782207E0;-8,887434006E-2
1,654175458E2;5,679790974E0;-4,209518433E-3;-1,396649837E0
1,655175458E2;2,795871496E0;-1,004127502E0;-1,911057949E0
1,656175458E2;9,524745941E-1;-5,566024780E-1;-9,109849930E-1
1,657175458E2;2,795957088E0;-2,144723415E0;-1,074947357E0
1,658175458E2;-9,560604095E-1;-1,314937592E0;7,914743423E-1
1,659175458E2;-5,966082573E0;1,235964298E0;3,238719940E0
1,660175458E2;-2,676402569E0;1,784221172E0;9,210143089E-1
1,661175458E2;-9,207639694E-1;1,762490749E0;1,037380695E0
1,662175458E2;4,301733494E0;-2,288838387E0;-2,045460463E0
1,663175458E2;2,934844017E0;2,556438446E-1;1,025080681E-2
1,664175458E2;-3,083848953E-2;-1,399707794E-2;7,089126110E-1
1,665175458E2;3,902390480E0;-2,831238747E0;-2,049873352E0
1,666175458E2;-1,799117565E0;-1,904280186E0;1,203444481E0
1,667175458E2;-6,454157352E0;5,511503220E-1;1,814152241E0
1,668175458E2;-3,058171272E0;2,343667030E0;1,035330296E0
1,669175458E2;6,085071564E-1;-3,221477509E0;1,472495079E0
1,670175458E2;4,731217384E0;-1,941271782E0;-2,809662342E0
1,671175458E2;2,834935188E0;1,149234772E-1;-4,458594322E-2
1,672175458E2;-1,093269825E0;-4,246921539E-1;-2,576673031E-1
1,673175458E2;1,719310284E0;-2,513667583E0;-1,531962633E0
1,674175458E2;-2,753924370E0;-7,518343925E-1;1,997966051E0
1,675175458E2;-4,978996754E0;1,041947842E0;3,805243015E0
1,676175458E2;-4,641189575E-1;5,437397957E-1;7,840511799E-1
1,677175458E2;3,536033630E-1;-2,189469814E0;-2,233751297E0
1,678175458E2;4,750344753E0;-5,108575821E-1;-1,202321768E0
1,679175458E2;3,802869081E0;4,214649200E-1;-1,156560421E0
1,680175458E2;2,760796547E-1;-1,897469997E0;1,860136986E-1
1,681175458E2;-7,134070396E-1;-1,789997578E0;2,496004105E-3
1,682175458E2;-2,842241764E0;-8,290953636E-1;3,029246807E0
1,683175458E2;-5,285266876E0;2,810809612E0;3,886091232E0
1,684175458E2;-1,091386318E0;8,939981461E-1;8,621017933E-1
1,685175458E2;8,137602806E-1;-1,591363907E0;-4,214739799E-1
1,686175458E2;5,553563595E0;-1,416941643E0;-2,444268942E0
1,687175458E2;8,400521278E-1;1,312847137E-1;-5,542850494E-1
1,688175458E2;2,899163723E0;-3,013271809E0;-5,876455307E-1
1,689175458E2;3,240385056E-1;3,120183945E-2;2,397101641E0
1,690175458E2;-3,518139601E0;3,457841873E0;4,995107174E0
1,691175458E2;-7,536473751E0;5,196781635E0;4,836950302E-1
1,692175458E2;-3,231784344E0;9,258608818E-1;1,736716151E0
1,693175458E2;4,387723923E0;-5,028334618E0;-8,281450272E0
1,694175458E2;2,311587811E0;8,271675110E-1;-5,074017048E-1
1,695175458E2;-3,384406567E-1;-1,290893555E-2;1,074776649E0
1,696175458E2;2,730638504E0;-1,837359428E0;-3,695199490E-1
1,697175458E2;-1,241174221E0;-1,140453339E0;9,449052811E-1
1,698175458E2;-4,514394283E0;8,279285431E-1;3,685461044E0
1,699175458E2;-5,265211105E0;5,533447266E-1;1,634366035E0
1,700175458E2;9,007868767E-1;-2,452074528E0;9,945552349E-1
1,701175458E2;5,491127014E0;-3,097812653E0;-2,469564915E0
1,702175458E2;4,231391907E0;-7,229681015E-1;-1,608374119E-1
1,703175458E2;-9,765934944E-1;-1,281012535E0;4,741897583E-1
1,704175458E2;3,649738789E0;-3,057610989E0;-2,976884842E-1
1,705175458E2;-6,631355286E-1;-2,687172890E-1;1,816661119E0
1,706175458E2;-5,616556168E0;2,711318970E0;2,202039719E0
1,707175458E2;-5,386122704E0;1,950093746E0;1,173354149E0
1,708175458E2;5,298967361E-1;-2,800885201E0;9,208233356E-1
1,709175458E2;5,305238724E0;-2,285987854E0;-2,964614868E0
1,710175458E2;2,964637756E0;1,282320023E-1;-4,112980366E-1
1,711175458E2;-1,472281933E0;-1,033047676E0;-3,230481148E-1
1,712175458E2;2,153111458E0;-2,878522873E0;-1,537775278E0
1,713175458E2;-2,428058147E0;1,969852448E-1;1,470672131E0
1,714175458E2;-5,648489952E0;3,194590807E0;2,331361771E0
1,715175458E2;-1,287044525E0;1,307922840E0;5,894832611E-1
1,716175458E2;1,690073013E-1;-2,676202774E0;-5,508308411E-1
1,717175458E2;5,058532715E0;-2,000068665E0;-1,477709293E0
1,718175458E2;3,810073614E0;4,287881851E-1;-7,466721535E-1
1,719175458E2;3,725538254E-1;-1,167059898E0;2,866449356E-1
1,720175458E2;5,005750656E-1;-1,812825203E0;2,515141964E-1
1,721175458E2;-2,543724537E0;-7,226972580E-1;1,678630590E0
1,722175458E2;-5,190289497E0;2,121198177E0;2,780308723E0
1,723175458E2;-1,176414490E0;1,186162949E0;-2,951097488E-2
1,724175458E2;1,245722294E0;-2,512563705E0;-2,424305439E0
1,725175458E2;3,892199039E0;7,416725159E-2;-1,923660755E0
1,726175458E2;1,986631393E0;-5,436630249E-1;-1,561364412E0
1,727175458E2;1,430426598E0;-1,939336300E0;-1,936774254E-1
1,728175458E2;-1,438100338E0;-8,715238571E-1;9,116096497E-1
1,729175458E2;-4,795982838E0;2,756624222E-1;2,774745941E0
1,730175458E2;-4,599808216E0;2,894869328E0;2,687572718E0
1,731175458E2;6,200938225E-1;-1,024571896E0;4,895081520E-1
1,732175458E2;3,776871204E0;-2,641030312E0;-6,158623695E-1
1,733175458E2;2,928265333E0;-1,414420128E0;-7,629234791E-1
1,734175458E2;8,212785721E-1;-5,079174042E-1;-5,486829281E-1
1,735175458E2;3,619762897E0;-2,222464561E0;-1,391208172E-1
1,736175458E2;-8,386340141E-1;-1,138477325E0;2,150654078E0
1,737175458E2;-4,881320953E0;-2,580881119E-2;2,755119085E0
1,738175458E2;-2,775855541E0;4,134179115E0;4,495320797E0
1,739175458E2;-5,098438263E-1;-1,084136963E0;-1,208500147E0
1,740175458E2;3,792777061E0;-1,205641747E0;-4,286308289E-1
1,741175458E2;2,460080147E0;-4,186429977E-1;-8,229885101E-1
1,742175458E2;6,570129395E-1;-2,098083496E-5;2,519776821E-1
1,743175458E2;2,234691620E0;-1,920803070E0;-1,792341948E0
1,744175458E2;-1,223094940E0;-6,942238808E-1;1,713276386E0
1,745175458E2;-4,806518555E0;4,904851913E-1;3,460071087E0
1,746175458E2;-2,931351185E0;2,404505253E0;1,819879532E0
1,747175458E2;-9,909420013E-1;-2,567415714E0;5,843443871E-1
1,748175458E2;3,764362812E0;-6,282953262E0;-6,065714359E0
1,749175458E2;2,051711321E0;-9,801664352E-1;-1,067017794E0
1,750175458E2;-3,598262310E0;-1,211526871E0;3,029766083E-1
1,751175458E2;5,233193398E0;-3,725023746E0;1,281939983E0
1,752175458E2;5,499844551E-1;-4,032129765E0;-1,123046875E-1
1,753175458E2;-5,790449619E0;2,786273718E0;4,521344662E0
1,754175458E2;-1,416120529E-1;4,299883842E0;4,609818935E0
1,755175458E2;-6,073365211E-1;-2,333250999E0;1,445779562E0
1,756175458E2;4,018448830E0;-1,788680077E0;-2,832493067E0
1,757175458E2;1,994233370E0;-1,453971863E-1;1,612801552E-1
1,758175458E2;-8,666353226E-1;1,093337059E0;9,547584057E-1
1,759175458E2;1,575654507E0;-1,159041405E0;-1,704592466E0
1,760175458E2;-1,535114765E0;4,541912079E-1;2,816224575E0
1,761175458E2;-4,326616764E0;2,286242962E0;3,331096411E0
1,762175458E2;-1,406439304E0;1,770065784E0;1,273203373E0
1,763175458E2;2,514868736E0;-3,806189537E0;-8,900322914E-1
1,764175458E2;4,911900997E0;-1,068408966E0;-2,554790497E0
1,765175458E2;3,204398155E0;2,852058411E-2;-1,129815817E0
1,766175458E2;1,504579067E0;-1,224871159E0;5,357031822E-1
1,767175458E2;-1,016087532E-1;-1,909003258E0;6,628980637E-1
1,768175458E2;-3,023086309E0;-1,516337395E-1;2,799086571E0
1,769175458E2;-5,711662292E0;3,959367514E0;2,325445414E0
1,770175458E2;-3,936653137E-1;1,003264904E0;3,811550140E-2
1,771175458E2;6,300520897E-1;-2,485860825E0;-2,132408619E-1
1,772175458E2;4,095629692E0;8,747177124E-1;-1,474494696E0
1,773175458E2;5,355520248E0;-2,289070129E0;-2,895477533E0
1,774175458E2;2,224685669E0;-2,867605686E0;-7,828130722E-1
1,775175458E2;-2,420468807E0;-1,247517109E0;7,349267006E-1
1,776175458E2;-2,971136093E0;-4,328393936E-1;3,302582264E0
1,777175458E2;-4,184546947E0;1,281744003E0;3,430894613E0
1,778175458E2;1,547160149E-1;-5,746383667E-1;9,763009548E-1
1,779175458E2;2,149559975E0;-1,730569839E0;-2,418488026E0
1,780175458E2;2,532630444E0;1,424512863E-1;-3,507177830E-1
1,781175458E2;1,186647415E0;-6,038341522E-1;-1,415069103E0
1,782175458E2;3,069995403E0;-3,021230698E0;-6,781089306E-1
1,783175458E2;-1,349554062E0;1,871166229E-1;2,474774361E0
1,784175458E2;-5,229405403E0;2,033752680E0;3,435546875E0
1,785175458E2;-3,867624998E0;2,989165545E0;2,334551811E0
1,786175458E2;7,884836197E-2;-3,516709328E0;-6,128456593E-1
1,787175458E2;3,697362900E0;-2,230129242E0;-2,542121410E0
1,788175458E2;2,524396181E0;-1,948547363E-2;1,048780918E0
1,789175458E2;8,491220474E-1;-1,598307610E0;-4,143304825E-1
1,790175458E2;2,877713203E0;-2,116304874E0;-1,720085144E0
1,791175458E2;-1,218398094E0;-4,989552498E-1;1,732927561E0
1,792175458E2;-4,517748356E0;2,761803150E0;1,842689037E0
1,793175458E2;-2,009483814E0;2,474572659E0;8,986268044E-1
1,794175458E2;-5,884151459E-1;-2,961565018E0;8,831346035E-1
1,795175458E2;4,895653725E0;-3,194736481E0;-1,525622845E0
1,796175458E2;2,697272301E0;-8,997163773E-1;-7,556273937E-1
1,797175458E2;2,196149826E-1;-1,649196625E0;-9,153413773E-1
1,798175458E2;2,290436268E0;-1,867059231E0;-6,530082226E-1
1,799175458E2;-2,652371883E0;-1,046220779E0;1,292023659E0
1,800175458E2;-4,289846897E0;3,525142431E0;1,658231020E0
1,801175458E2;-1,398867607E0;9,082946777E-1;-6,009981632E-1
1,802175458E2;-9,186763763E-1;-4,012377739E0;1,126025677E0
1,803175458E2;5,199123383E0;-3,549568176E0;-1,963203430E0
1,804175458E2;3,010860682E0;9,177017212E-2;1,805150509E-1
1,805175458E2;1,355570316E0;-1,479201317E0;5,442206860E-1
1,806175458E2;3,001699448E-1;-1,450654507E0;7,853622437E-1
1,807175458E2;-1,952361584E0;-9,442248344E-1;4,312596321E-1
1,808175458E2;-5,146528244E0;2,158317566E0;3,252369404E0
1,809175458E2;-1,529614449E0;1,686062813E0;8,921627998E-1
1,810175458E2;1,459208488E0;-3,801456928E0;-2,062532663E0
1,811175458E2;3,906739950E0;-1,648515701E0;-2,976630211E0
1,812175458E2;1,604894638E0;4,680852890E-1;-7,243459225E-1
1,813175458E2;5,925426483E-1;-9,173979759E-1;-1,257700920E-1
1,814175458E2;5,795001984E-3;-2,368484497E0;1,563870907E-1
1,815175458E2;-3,015546322E0;-8,332109451E-1;2,464452982E0
1,816175458E2;-6,616680145E0;2,126304388E0;3,269572258E0
1,817175458E2;1,196689606E-1;5,163435936E-1;1,030419827E0
1,818175458E2;2,216555595E0;-2,229487419E0;-8,736138344E-1
1,819175458E2;3,968744278E0;-1,465994835E0;-2,344029427E0
1,820175458E2;2,884441137E0;2,326307297E-1;-1,146632195E0
1,821175458E2;1,223506927E-1;-1,055366516E0;9,248526096E-1
1,822175458E2;-4,030013084E-1;-1,399445534E0;7,701756954E-1
1,823175458E2;-3,438003063E0;1,147532225E0;3,221762657E0
1,824175458E2;-3,991905212E0;3,763389826E0;3,139099121E0
1,825175458E2;-8,230752945E-1;-6,831035614E-1;4,616570473E-1
1,826175458E2;1,989443779E0;-1,606305122E0;-3,135733843E0
1,827175458E2;3,457003832E0;-5,331516266E-1;-2,429146528E0
1,828175458E2;1,510207653E0;6,405448914E-1;-4,680037498E-2
1,829175458E2;1,315619946E0;-1,417539597E0;-8,629586697E-1
1,830175458E2;-1,098685265E0;-1,340240955E0;1,446163177E0
1,831175458E2;-4,370443344E0;-1,597990990E-1;3,010381937E0
1,832175458E2;-4,211037636E0;2,655086994E0;2,088013649E0
1,833175458E2;3,495268822E-1;-9,411587715E-1;-2,047410011E-1
1,834175458E2;1,879906178E0;-2,185556412E0;-1,684057713E-1
1,835175458E2;3,063735008E0;-1,399289131E0;-1,670693874E0
1,836175458E2;1,022662163E0;-3,493566513E-1;-4,676642418E-1
1,837175458E2;3,154242992E0;-3,109685898E0;-4,138586521E-1
1,838175458E2;-7,621741295E-1;-1,093038559E0;1,439061642E0
1,839175458E2;-3,233035088E0;1,202269793E0;2,741281033E0
1,840175458E2;-6,476391792E0;3,311099529E0;9,524307251E-1
1,841175458E2;7,324652672E-1;-1,161702156E0;1,242995501E0
1,842175458E2;3,463166714E0;-3,378685951E0;-2,731050968E0
1,843175458E2;3,826452017E0;4,611778259E-2;-1,040880442E0
1,844175458E2;2,621343613E0;-6,322937012E-1;-7,675800323E-1
1,845175458E2;1,322754860E0;-1,445072174E0;-1,156270504E-1
1,846175458E2;-1,204111576E0;-1,705361843E0;7,101855278E-1
1,847175458E2;-2,922205448E0;2,087531090E-1;2,834551096E0
1,848175458E2;-5,805975914E0;2,247307539E0;2,249870539E0
1,849175458E2;-1,362298489E0;-9,109148979E-1;5,005347729E-1
1,850175458E2;3,127125740E0;-2,662701607E0;-1,371782303E0
1,851175458E2;3,259485245E0;-2,130670547E0;-2,182969332E0
1,852175458E2;4,915933609E-1;4,383020401E-1;2,872991562E-2
1,853175458E2;3,341877937E0;-2,794456959E0;-5,652678013E-1
1,854175458E2;-7,580418587E-1;-3,861603737E-1;1,796339750E0
1,855175458E2;-3,246250629E0;8,364496231E-1;3,024513006E0
1,856175458E2;-5,710084438E0;3,000406504E0;1,653098106E0
1,857175458E2;-1,965759277E0;1,770706177E-1;2,189850807E-1
1,858175458E2;1,682082653E0;-2,858623505E0;-9,053218365E-1
1,859175458E2;3,259603977E0;-1,194953918E-3;-1,629891872E0
1,860175458E2;2,373040676E0;-4,156265259E-1;-1,526833057E0
1,861175458E2;2,175702095E0;-2,845232964E0;-1,838831663E0
1,862175458E2;-6,295166016E-1;-6,879081726E-1;1,298695803E0
1,863175458E2;-3,725046158E0;1,480278969E0;2,436592579E0
1,864175458E2;-5,000056744E0;2,923103094E0;2,560499907E0
1,865175458E2;-6,928887367E-1;-1,021919250E-1;6,548321247E-1
1,866175458E2;2,437017441E0;-2,098957062E0;-6,921582222E-1
1,867175458E2;4,833853722E0;-2,126488686E0;-2,332553625E0
1,868175458E2;6,732091904E-1;3,425216675E-2;-5,806732178E-2
1,869175458E2;2,231462955E0;-1,827612400E0;2,740216255E-2
1,870175458E2;-7,899694443E-1;-1,207008362E0;1,964862823E0
1,871175458E2;-3,066287994E0;4,423832893E-1;3,787590504E0
1,872175458E2;-6,469134331E0;3,213381767E0;1,600791454E0
1,873175458E2;-6,469550133E-1;-1,473870754E0;1,328251362E-1
1,874175458E2;3,296682358E0;-1,242513657E0;-1,189731598E0
1,875175458E2;2,296909332E0;-1,240444183E0;-1,864330292E0
1,876175458E2;8,331160545E-1;-1,699628830E-1;-1,452385187E0
1,877175458E2;3,577300072E0;-3,126097202E0;-1,044830561E0
1,878175458E2;-1,351211071E0;1,662912369E-1;1,844353080E0
1,879175458E2;-2,679016590E0;-3,560233116E-1;2,747664213E0
1,880175458E2;-4,652824402E0;4,530489445E0;3,755014896E0
1,881175458E2;-7,714881897E-1;-4,134178162E-3;3,338346481E-1
1,882175458E2;3,150713444E0;-2,686955452E0;-7,460944653E-1
1,883175458E2;3,001064062E0;3,417720795E-1;-1,630844355E0
1,884175458E2;2,552472353E0;-3,129529953E-1;-1,419571161E0
1,885175458E2;1,569507599E0;-1,380676746E0;3,464996815E-1
1,886175458E2;-6,777586937E-1;-1,565596581E0;8,977315426E-1
1,887175458E2;-3,154346466E0;7,186365128E-2;3,246701241E0
1,888175458E2;-5,039204597E0;1,679069519E0;3,142667770E0
1,889175458E2;-3,484044075E-1;1,167824268E0;5,680682659E-1
1,890175458E2;7,134199142E-1;-2,614353180E0;-1,314175844E0
1,891175458E2;4,468393326E0;-2,915830612E-1;-1,246882915E0
1,892175458E2;2,614556074E0;-1,105957031E-1;-1,072785616E0
1,893175458E2;3,873357773E-1;-1,568270683E0;-2,290341854E-1
1,894175458E2;7,774353027E-1;-2,741455078E0;3,700308800E-1
1,895175458E2;-2,216328621E0;-3,163785934E-1;1,235647917E0
1,896175458E2;-3,762355804E0;1,313577890E0;1,884904146E0
1,897175458E2;-5,787234306E-1;1,472819328E0;1,332535744E-1
1,898175458E2;6,082773209E-2;-2,333385468E0;-8,227536678E-1
1,899175458E2;4,966976166E0;-1,358893394E0;-9,133608341E-1
1,900175458E2;2,854259253E0;-1,988201141E-1;-4,309453964E-1
1,901175458E2;6,059370041E-1;-8,606824875E-1;1,063914299E-1
1,902175458E2;1,525840759E0;-1,609887123E0;-6,950676441E-1
1,903175458E2;-5,506439209E-1;-1,277425289E0;1,016952515E0
1,904175458E2;-4,672143459E0;1,806843281E0;2,481168985E0
1,905175458E2;-3,367497444E0;2,495893478E0;2,113298893E0
1,906175458E2;7,764148712E-2;-4,272698402E0;-1,536026478E0
1,907175458E2;3,558063030E0;-5,353889465E-1;-1,023669004E0
1,908175458E2;2,856583834E0;-1,343502045E0;-1,442382336E-1
1,909175458E2;3,605961323E0;-1,218565941E0;-1,355275393E0
1,910175458E2;-1,918897629E-1;-7,657294273E-1;-6,817390919E-1
1,911175458E2;-2,132517338E0;-5,996656418E-2;2,467619658E0
1,912175458E2;-3,427268028E0;2,071599245E0;2,222037315E0
1,913175458E2;-5,885141850E0;3,842312336E0;2,816233397E0
1,914175458E2;-8,959808350E-1;-9,905009270E-1;1,550654292E0
1,915175458E2;1,191789627E0;-2,403709412E0;-1,573941946E0
1,916175458E2;4,050914764E0;-1,393352509E0;-5,427737236E-1
1,917175458E2;1,676279068E0;1,368856430E-1;-7,137210369E-1
1,918175458E2;1,218648911E0;-1,772904873E0;-9,377071857E-1
1,919175458E2;1,335525513E-2;-1,588487625E0;1,926379204E-1
1,920175458E2;-1,478944302E0;-2,119483948E-1;1,768721342E0
1,921175458E2;-4,946431160E0;2,369325638E0;2,985454559E0
1,922175458E2;-8,791718483E-1;9,248209000E-1;4,841382504E-1
1,923175458E2;1,647376060E0;-1,533715248E0;-9,117641449E-1
1,924175458E2;5,356857300E0;-1,476495743E0;-1,465008020E0
1,925175458E2;5,720543861E-1;8,897838593E-1;-8,250565529E-1
1,926175458E2;2,102676392E0;-1,541910172E-1;3,833448887E-1
1,927175458E2;5,462360382E-1;-4,545950890E-1;5,734601021E-1
1,928175458E2;-2,189529419E0;-9,334273338E-1;1,945028067E0
1,929175458E2;-4,772068977E0;1,981928349E0;3,097908974E0
1,930175458E2;-1,653767586E0;2,151211500E0;1,449133873E0
1,931175458E2;1,101058960E0;-4,817506313E0;-1,172828913E0
1,932175458E2;3,525389671E0;-1,911468506E-1;2,170016766E-1
1,933175458E2;3,762401581E0;-9,609050751E-1;2,741370201E-1
1,934175458E2;2,758641243E-1;-1,151474953E0;3,011822701E-2
1,935175458E2;2,444974899E0;-1,948751926E0;-3,338069916E-1
1,936175458E2;-2,592537403E0;-2,032318115E-1;2,598565817E0
1,937175458E2;-2,165490150E0;9,884619713E-1;1,932730198E0
1,938175458E2;-4,883580208E0;2,013311386E0;8,690218925E-1
1,939175458E2;-3,655385971E-2;-2,401900291E0;1,560356140E0
1,940175458E2;1,448283911E0;-1,990250587E0;-1,988026619E0
1,941175458E2;3,553304672E0;3,870964050E-3;1,386976242E-1
1,942175458E2;7,917199135E-1;-3,024941444E0;8,743400574E-1
1,943175458E2;2,030991554E0;-1,326063633E0;1,059579134E0
1,944175458E2;-1,347012043E0;-1,088214874E0;1,349811554E0
1,945175458E2;-3,053009272E0;-6,172552109E-1;3,528105259E0
1,946175458E2;-4,609793663E0;3,076905251E0;3,739501715E0
1,947175458E2;3,267278671E-1;-1,642238617E0;2,488878727E0
1,948175458E2;2,894820213E0;-1,840869904E0;-1,435107470E0
1,949175458E2;2,990696907E0;-1,033040047E0;1,691343784E-1
1,950175458E2;1,425380230E0;-1,708602905E-1;-4,028463364E-2
1,951175458E2;2,563235760E0;-2,059305668E0;4,317541122E-1
1,952175458E2;-3,937048912E-1;-2,648640633E0;1,302506208E0
1,953175458E2;-1,356811047E0;-1,744823933E0;2,084590435E0
1,954175458E2;-4,188414574E0;2,228661060E0;3,299047470E0
1,955175458E2;-1,501061440E0;1,441742897E0;2,827279091E0
1,956175458E2;-1,657090187E-1;-3,357957840E0;1,088070393E0
1,957175458E2;3,652528286E0;-1,010664940E0;-4,594163895E-1
1,958175458E2;2,580185890E0;4,342241287E-1;2,097477913E-1
1,959175458E2;1,662883759E-1;-3,308172226E-1;7,934126854E-1
1,960175458E2;1,561663151E0;-1,443809986E0;7,102336884E-1
1,961175458E2;-7,496638298E-1;1,607217789E-1;9,961130619E-1
1,962175458E2;-4,925127029E-1;8,172035217E-3;1,057006121E0
1,963175458E2;-8,586778641E-1;3,036599159E-1;-3,660035133E-1
1,964175458E2;5,249166489E-2;3,836293221E-1;3,955955505E-1
1,965175458E2;2,419233322E-2;-3,464283943E-1;5,430974960E-1
1,966175458E2;8,058924675E-1;7,650327682E-2;2,491636276E-1
1,967175458E2;7,484579086E-2;1,973043442E0;1,089195251E0
1,968175458E2;3,262768269E0;-4,474646091E0;-4,760527611E-1
1,969175458E2;-2,334736824E0;7,079358101E-1;2,312361717E0
1,970175458E2;8,776229858E0;2,485112906E0;-3,537234306E0
1,971175458E2;4,054532051E-1;8,068075180E-1;3,875589371E-1
1,972175458E2;-3,003162861E0;-5,250415802E0;-1,100468636E-1
1,973175458E2;-2,297257423E0;1,777574539E0;3,258404732E-1
1,974175458E2;6,969718456E0;-4,129705429E0;-4,716707706E0
1,975175458E2;-3,483222485E0;3,328773499E0;2,980506182E0
1,976175458E2;2,707103729E0;-2,875175476E0;-2,171388626E0
1,977175458E2;-2,397187710E0;3,577174664E0;-2,854681015E-2
1,978175458E2;-3,723173141E-1;2,112451792E0;5,214664936E-1
1,979175458E2;1,837491989E-1;-1,671357155E0;-3,636008978E0
1,980175458E2;4,075825691E0;1,005616188E0;-2,850462675E0
1,981175458E2;-2,370119095E-2;1,420700073E0;6,158229113E-1
1,982175458E2;-5,521464348E-2;2,031045437E0;-8,357169628E-1
1,983175458E2;8,909339905E-1;-2,151653290E0;-1,138723373E0
1,984175458E2;1,029491901E0;-1,417365074E0;1,353482008E0
1,985175458E2;-6,282124519E-1;1,034167290E0;1,384444237E0
1,986175458E2;-2,250111580E0;-5,670366287E-1;1,044169903E0
1,987175458E2;2,311015606E0;-2,060340881E0;-1,671919346E0
1,988175458E2;-1,189272881E0;1,221805096E0;8,463358879E-2
1,989175458E2;4,993195534E-1;-1,360074997E0;-1,056175947E0
1,990175458E2;8,398056030E-3;1,126952171E-1;-9,391961098E-1
1,991175458E2;4,654440880E-1;-6,845765114E-1;3,490586281E-1
1,992175458E2;2,533485413E0;-3,387868404E0;-3,273909330E0
1,993175458E2;-9,845457077E-1;6,938734055E-1;1,317813754E0
1,994175458E2;-8,435974121E-1;-6,047396660E-1;-9,649584293E-1
1,995175458E2;-1,172983170E0;8,029427528E-1;-2,700161934E-2
1,996175458E2;-7,380080223E-1;1,790325165E0;5,175948143E-2
1,997175458E2;6,003422737E-1;-2,366085529E0;5,681793690E-1
1,998175458E2;-1,192673206E0;2,305227041E0;7,082190514E-1
1,999175458E2;1,779124260E0;-8,584322929E-1;2,501595020E-1
2,000175458E2;1,975892544E0;-2,393480778E0;1,220669746E-1
2,001175458E2;2,637352943E-1;2,576004028E0;2,371265888E0
2,002175458E2;4,674333096E0;-8,283357620E-1;8,180923462E-1
2,003175458E2;-2,765145302E0;-1,384975433E0;3,979988098E-1
2,004175458E2;-2,535111904E0;-2,082055569E0;2,968643665E0
2,005175458E2;3,304093838E0;-1,714511395E0;2,947961569E0
2,006175458E2;3,228516579E-1;-3,864817619E-1;2,992267609E0
2,007175458E2;1,189128399E0;-2,198068142E0;-7,159662247E-1
2,008175458E2;-2,234634399E0;-2,385846138E0;-1,430978775E-1
2,009175458E2;1,620162964E0;-2,104896545E0;8,589518070E-1
2,010175458E2;-2,908716917E0;-1,822562218E0;-1,745656013E0
2,011175458E2;5,084969521E0;-2,969176769E0;2,564734697E0
2,012175458E2;4,701893330E-1;-4,465436935E-1;3,040895700E0
2,013175458E2;2,139499903E0;-2,876860142E0;5,191979408E-1
2,014175458E2;2,596320152E0;-8,574724197E-2;3,527860641E0
2,015175458E2;3,769276142E0;-4,090293407E0;1,519713163E0
2,016175458E2;9,707188606E-1;-2,390947342E-1;2,129092693E0
2,017175458E2;2,351717949E0;-2,353291035E0;1,944992065E0
2,018175458E2;2,680544376E0;-4,971624374E0;2,805960655E0
2,019175458E2;3,908662796E-1;6,347372532E0;2,468441725E0
2,020175458E2;-1,933049440E0;-1,585157871E0;-2,609310150E-1
2,021175458E2;-1,924787521E0;-6,394220829E0;1,872367859E0
2,022175458E2;-6,188434124E0;3,502319813E0;1,890411615E0
2,023175458E2;2,627217770E0;-3,523358345E0;-5,229673386E0
2,024175458E2;-7,015085697E0;-4,179267883E0;1,829970837E0
2,025175458E2;1,433775902E0;2,974161148E0;3,892810106E0
2,026175458E2;-4,499631882E0;-2,936662674E0;-9,968590736E-2
2,027175458E2;1,506596088E0;-3,949227333E0;-2,036549568E0
2,028175458E2;8,580539703E0;-5,727477074E0;-7,486290932E0
2,029175458E2;-1,299011707E0;1,288681030E-1;5,899385214E-1
2,030175458E2;2,067282677E0;-5,643561363E0;-3,387478352E0
2,031175458E2;-6,788678169E-1;-5,203285694E0;-4,412925243E-1
2,032175458E2;-6,140413761E0;6,295492172E0;7,134115219E0
2,033175458E2;-3,709531307E0;1,625605106E0;3,030240536E0
2,034175458E2;-2,779054642E-1;-1,236087799E0;-4,372982025E0
2,035175458E2;2,933239698E0;-1,928085327E0;-3,368492126E0
2,036175458E2;5,154610634E0;-8,640518188E-1;-9,160948396E-1
2,037175458E2;-1,363777637E0;-1,894324780E0;-1,005452991E0
2,038175458E2;2,074533939E0;-2,363188267E0;1,784456491E0
2,039175458E2;4,093949795E0;-6,209426880E0;-1,157816887E0
2,040175458E2;-4,193315506E0;5,672061443E0;5,155277252E0
2,041175458E2;2,365250111E0;7,648416519E0;-8,655769825E-1
2,042175458E2;-6,500382423E-1;-8,772214890E0;-1,715202332E-1
2,043175458E2;2,259196758E0;-1,731284142E0;-3,857675314E0
2,044175458E2;1,204229736E1;-1,390959358E1;-1,640226173E1
2,045175458E2;3,025631905E0;-3,326583862E0;-4,690881729E0
2,046175458E2;-5,587007999E0;3,909712076E0;-3,111127615E0
