"Time (s)";"Gyroscope x (rad/s)";"Gyroscope y (rad/s)";"Gyroscope z (rad/s)"
4,031840500E-2;-5,010622144E-1;-1,572519898E0;-1,430951804E-1
1,058245850E-1;-7,000515461E-1;-1,355968118E0;-4,703662544E-2
2,058245850E-1;-4,891503453E-1;-4,410447180E-1;7,819075137E-2
3,058245850E-1;-2,535090782E-2;-2,015855312E-1;6,811147183E-2
4,058245850E-1;-1,437060535E-1;-7,177666575E-2;-8,628471941E-2
5,058245850E-1;-4,569272101E-1;-3,135266006E-1;3,420845419E-2
6,058245850E-1;-4,766276181E-1;-3,248275816E-1;2,764165215E-2
7,058245850E-1;-3,397938013E-1;-3,591887653E-1;9,498954564E-2
8,058245850E-1;1,342376322E-1;-1,945605874E-1;-3,268129006E-2
9,058245850E-1;7,712173462E-2;-1,163698286E-1;7,559457421E-2
1,005824585E0;3,817907767E-3;-2,857322097E-1;-2,397646010E-2
1,105824585E0;-6,362161636E-1;-1,078482628E0;-6,160575747E-1
1,205824585E0;-1,704619408E0;-2,748435497E0;7,838928103E-1
1,305824585E0;-1,707215667E0;-6,687447429E-1;2,168113470E0
1,405824585E0;1,808008432E0;7,996225953E-1;3,773620129E-1
1,505824585E0;1,823890924E0;-3,016147017E-1;9,900598526E-1
1,605824585E0;-3,611740768E-1;2,798679113E0;4,535674453E-1
1,705824585E0;2,402227521E-1;7,626652718E-1;2,154827118E-1
1,805824585E0;3,173444867E-1;-6,013968587E-1;4,889976382E-1
1,905824585E0;3,101668358E-1;-2,652835131E0;1,141096234E0
2,005824585E0;3,889684379E-1;-2,360841513E0;9,080511928E-1
2,105824585E0;-1,159116775E-1;-1,077413559E0;3,026837409E-1
2,205824585E0;-6,537785530E-1;-2,193006277E-1;3,512475267E-2
2,305824585E0;-5,520694852E-1;2,076941915E-2;-1,559233516E-1
2,405824585E0;-7,145596147E-1;-3,909537569E-2;-2,671008408E-1
2,505824585E0;-1,072984815E0;7,060074806E-1;1,369865239E-1
2,605824585E0;1,206458881E-1;2,397646159E-1;-5,192354787E-3
2,705824585E0;3,466660157E-2;1,310305893E-1;2,258674204E-1
2,805824585E0;4,459316283E-2;9,550877810E-1;2,435825169E-1
2,905824585E0;-1,175915636E-2;-8,323039114E-2;-1,333213449E-1
3,005824585E0;-1,756237634E-2;3,846924007E-1;-1,970040351E-1
3,105824585E0;-9,162978968E-4;1,446223408E-1;-6,398813725E-1
3,205824585E0;-1,679879380E-3;4,795292020E-2;-1,371392459E-1
3,305824585E0;-9,162978968E-4;2,275473066E-2;-1,130100712E-2
3,405824585E0;-4,581489484E-4;6,108652451E-4;-1,527163113E-4
3,505824585E0;-1,527163113E-4;-1,679879380E-3;1,527163113E-4
3,605824585E0;-6,108652451E-4;-1,985311974E-3;4,581489484E-4
3,705824585E0;3,054326226E-4;-1,221730490E-3;3,054326226E-4
3,805824585E0;-7,635815418E-4;-1,832595794E-3;3,054326226E-4
3,905824585E0;-3,054326226E-4;-2,443460980E-3;6,108652451E-4
4,005824585E0;-6,108652451E-4;-2,443460980E-3;1,527163113E-4
4,105824585E0;-9,162978968E-4;-1,832595794E-3;1,527163113E-4
4,205824585E0;6,108652451E-4;-1,069014193E-3;3,054326226E-4
4,305824585E0;1,527163113E-4;-7,635815418E-4;3,054326226E-4
4,405824585E0;4,581489484E-4;-1,069014193E-3;-4,581489484E-4
4,505824585E0;-3,054326226E-4;-6,108652451E-4;-4,581489484E-4
4,605824585E0;-4,581489484E-4;-6,108652451E-4;1,527163113E-4
4,705824585E0;3,054326226E-4;-9,162978968E-4;4,581489484E-4
4,805824585E0;-1,527163113E-4;1,527163113E-4;-3,054326226E-4
4,905824585E0;-7,635815418E-4;3,054326226E-4;3,054326226E-4
5,005824585E0;2,596177394E-3;1,679879380E-3;-4,581489484E-4
5,105824585E0;-2,748893574E-3;-7,635815418E-4;7,635815418E-4
5,205824585E0;0,000000000E0;3,054326226E-4;-3,054326226E-4
5,305824585E0;-7,635815418E-4;-1,374446787E-3;3,054326226E-4
5,405824585E0;-4,581489484E-4;-1,679879380E-3;4,581489484E-4
5,505824585E0;-3,054326226E-4;-0,000000000E0;-0,000000000E0
5,605824585E0;-1,527163113E-4;-1,985311974E-3;6,108652451E-4
5,705824585E0;-4,581489484E-4;-2,138028387E-3;4,581489484E-4
5,805824585E0;1,069014193E-3;-1,069014193E-3;-4,581489484E-4
5,905824585E0;-1,374446787E-3;-2,748893574E-3;3,054326226E-4
6,005824585E0;3,054326226E-4;-6,108652451E-4;-1,527163113E-4
6,105824585E0;-7,635815418E-4;-1,374446787E-3;4,581489484E-4
6,205824585E0;4,581489484E-4;-9,162978968E-4;3,054326226E-4
6,305824585E0;-6,108652451E-4;-9,162978968E-4;3,054326226E-4
6,405824585E0;3,054326226E-4;-4,581489484E-4;4,581489484E-4
6,505824585E0;0,000000000E0;-6,108652451E-4;4,581489484E-4
6,605824585E0;-6,108652451E-4;-1,069014193E-3;0,000000000E0
6,705824585E0;6,108652451E-4;1,527163113E-4;0,000000000E0
6,805824585E0;1,527163113E-4;-4,581489484E-4;3,054326226E-4
6,905824585E0;-9,162978968E-4;-1,527163084E-3;3,054326226E-4
7,005824585E0;6,108652451E-4;-4,581489484E-4;4,581489484E-4
7,105824585E0;-3,054326226E-4;-9,162978968E-4;3,054326226E-4
7,205824585E0;-1,527163113E-4;3,054326226E-4;-0,000000000E0
7,305824585E0;-4,581489484E-4;3,054326226E-4;-0,000000000E0
7,405824585E0;1,527163113E-4;6,108652451E-4;1,527163113E-4
7,505824585E0;6,108652451E-4;1,221730490E-3;-4,581489484E-4
7,605824585E0;-3,054326226E-4;3,054326226E-4;4,581489484E-4
7,705824585E0;-3,054326226E-4;-0,000000000E0;6,108652451E-4
7,805824585E0;-6,108652451E-4;-4,581489484E-4;1,527163113E-4
7,905824585E0;-1,069014193E-3;-2,138028387E-3;4,581489484E-4
8,005824585E0;7,635815418E-4;-9,162978968E-4;0,000000000E0
8,105824585E0;-1,527163113E-4;-9,162978968E-4;4,581489484E-4
8,205824585E0;1,985311974E-3;1,832595794E-3;-6,108652451E-4
8,305824585E0;3,054326226E-4;1,679879380E-3;1,527163113E-4
8,405824585E0;-7,635815418E-4;1,527163084E-3;4,581489484E-4
8,505824585E0;4,581489484E-4;1,679879380E-3;6,108652451E-4
8,605824585E0;-0,000000000E0;2,443460980E-3;-1,527163113E-4
8,705824585E0;6,108652451E-4;2,138028387E-3;3,054326226E-4
8,805824585E0;-4,581489484E-4;2,138028387E-3;1,527163113E-4
8,905824585E0;1,527163113E-4;1,527163084E-3;3,054326226E-4
9,005824585E0;1,527163113E-4;0,000000000E0;-0,000000000E0
9,105824585E0;1,527163113E-4;1,221730490E-3;1,527163113E-4
9,205824585E0;-0,000000000E0;1,069014193E-3;-1,527163113E-4
9,305824585E0;-4,581489484E-4;4,581489484E-4;0,000000000E0
9,405824585E0;-1,527163113E-4;4,581489484E-4;1,527163113E-4
9,505824585E0;6,108652451E-4;1,527163113E-4;0,000000000E0
9,605824585E0;-1,527163113E-4;-4,581489484E-4;-3,054326226E-4
9,705824585E0;-1,679879380E-3;-1,527163113E-4;4,581489484E-4
9,805824585E0;3,054326226E-4;6,108652451E-4;1,527163113E-4
9,905824585E0;-6,108652451E-4;-6,108652451E-4;-0,000000000E0
1,000582459E1;7,635815418E-4;6,108652451E-4;-4,581489484E-4
1,010582458E1;-7,635815418E-4;-0,000000000E0;-1,527163113E-4
1,020582458E1;-6,108652451E-4;-6,108652451E-4;-4,581489484E-4
1,030582458E1;-1,527163084E-3;-6,108652451E-4;-0,000000000E0
1,040582459E1;0,000000000E0;0,000000000E0;-0,000000000E0
1,050582459E1;3,054326226E-4;-1,527163113E-4;-1,527163113E-4
1,060582458E1;4,581489484E-4;-1,527163113E-4;1,527163113E-4
1,070582458E1;-0,000000000E0;3,054326226E-4;-1,527163113E-4
1,080582458E1;-3,054326226E-4;-0,000000000E0;-3,054326226E-4
1,090582459E1;-1,527163113E-4;-9,162978968E-4;0,000000000E0
1,100582459E1;-6,108652451E-4;-4,581489484E-4;3,054326226E-4
1,110582458E1;-1,069014193E-3;-6,108652451E-4;-0,000000000E0
1,120582458E1;-7,635815418E-4;-1,221730490E-3;4,581489484E-4
1,130582458E1;9,162978968E-4;0,000000000E0;-1,527163113E-4
1,140582459E1;1,221730490E-3;-3,054326226E-4;-0,000000000E0
1,150582459E1;7,635815418E-4;0,000000000E0;-3,054326226E-4
1,160582458E1;1,527163113E-4;4,581489484E-4;-4,581489484E-4
1,170582458E1;-3,054326226E-4;-1,527163113E-4;4,581489484E-4
1,180582458E1;-3,054326226E-4;-4,581489484E-4;4,581489484E-4
1,190582459E1;1,527163113E-4;-1,221730490E-3;3,054326226E-4
1,200582459E1;0,000000000E0;-9,162978968E-4;-1,527163113E-4
1,210582458E1;-3,054326226E-4;-7,635815418E-4;1,527163113E-4
1,220582458E1;1,527163113E-4;-1,221730490E-3;-1,527163113E-4
1,230582459E1;-3,054326226E-4;-1,985311974E-3;-0,000000000E0
1,240582459E1;3,054326226E-4;-2,596177394E-3;1,527163113E-4
1,250582459E1;-3,054326226E-4;-1,679879380E-3;4,581489484E-4
1,260582458E1;9,162978968E-4;-1,069014193E-3;-3,054326226E-4
1,270582458E1;-7,635815418E-4;-1,527163084E-3;3,054326226E-4
1,280582459E1;1,069014193E-3;-9,162978968E-4;-3,054326226E-4
1,290582459E1;9,162978968E-4;-1,527163113E-4;-6,108652451E-4
1,300582459E1;-9,162978968E-4;-1,679879380E-3;3,054326226E-4
1,310582458E1;-3,054326226E-4;-7,635815418E-4;-1,527163113E-4
1,320582458E1;1,527163113E-4;-6,108652451E-4;0,000000000E0
1,330582459E1;-2,748893574E-3;-1,527163084E-3;6,108652451E-4
1,340582459E1;1,679879380E-3;9,162978968E-4;-3,054326226E-4
1,350582459E1;4,581489484E-4;6,108652451E-4;-3,054326226E-4
1,360582458E1;-0,000000000E0;-1,527163113E-4;1,527163113E-4
1,370582458E1;9,162978968E-4;1,069014193E-3;-4,581489484E-4
1,380582459E1;7,635815418E-4;1,221730490E-3;-4,581489484E-4
1,390582459E1;-1,527163113E-4;1,832595794E-3;-1,527163113E-4
1,400582459E1;-9,162978968E-4;2,596177394E-3;-3,054326226E-4
1,410582458E1;4,581489484E-4;3,665191587E-3;1,527163113E-4
1,420582458E1;-0,000000000E0;3,512475174E-3;4,581489484E-4
1,430582459E1;1,069014193E-3;3,665191587E-3;-1,527163113E-4
1,440582459E1;3,054326226E-4;3,970623948E-3;-1,527163113E-4
1,450582459E1;3,054326226E-4;4,276056774E-3;1,527163113E-4
1,460582458E1;0,000000000E0;3,665191587E-3;0,000000000E0
1,470582458E1;-6,108652451E-4;2,596177394E-3;-0,000000000E0
1,480582459E1;6,108652451E-4;1,832595794E-3;1,527163113E-4
1,490582459E1;-1,527163113E-4;9,162978968E-4;0,000000000E0
1,500582459E1;-3,054326226E-4;-7,635815418E-4;-0,000000000E0
1,510582458E1;7,635815418E-4;-1,069014193E-3;-4,581489484E-4
1,520582458E1;1,527163113E-4;-3,054326167E-3;-1,527163113E-4
1,530582459E1;-1,527163113E-4;-3,817907767E-3;-1,527163113E-4
1,540582459E1;-7,635815418E-4;-3,970623948E-3;-3,054326226E-4
1,550582459E1;-3,054326226E-4;-4,428773187E-3;-1,527163113E-4
1,560582458E1;-4,581489484E-4;-4,276056774E-3;-3,054326226E-4
1,570582458E1;-4,581489484E-4;-3,054326167E-3;-1,527163113E-4
1,580582459E1;3,054326226E-4;-2,901609987E-3;1,527163113E-4
1,590582459E1;-7,635815418E-4;-2,748893574E-3;-1,527163113E-4
1,600582459E1;-4,581489484E-4;-1,527163113E-4;-0,000000000E0
1,610582458E1;-1,527163084E-3;-1,527163113E-4;1,527163113E-4
1,620582459E1;1,221730490E-3;2,901609987E-3;1,527163113E-4
1,630582458E1;1,527163084E-3;2,748893574E-3;-3,054326226E-4
1,640582458E1;1,832595794E-3;3,817907767E-3;-3,054326226E-4
1,650582459E1;-0,000000000E0;4,428773187E-3;-4,581489484E-4
1,660582458E1;1,527163113E-4;3,665191587E-3;-1,527163113E-4
1,670582459E1;1,527163113E-4;3,207042580E-3;-6,108652451E-4
1,680582458E1;7,635815418E-4;5,192354787E-3;-1,527163084E-3
1,690582458E1;1,374446787E-3;2,901609987E-3;-9,162978968E-4
1,700582459E1;3,054326226E-4;1,985311974E-3;-6,108652451E-4
1,710582458E1;1,527163113E-4;3,054326226E-4;-0,000000000E0
1,720582459E1;1,527163113E-4;-1,069014193E-3;6,108652451E-4
1,730582458E1;3,054326226E-4;-0,000000000E0;-4,581489484E-4
1,740582458E1;-3,054326226E-4;-1,374446787E-3;1,527163113E-4
1,750582459E1;-4,581489484E-4;-1,069014193E-3;3,054326226E-4
1,760582458E1;-1,527163113E-4;-9,162978968E-4;1,527163113E-4
1,770582459E1;-1,527163113E-4;-4,581489484E-4;3,054326226E-4
1,780582458E1;9,162978968E-4;1,527163113E-4;-3,054326226E-4
1,790582458E1;9,162978968E-4;2,443460980E-3;-4,581489484E-4
1,800582459E1;1,527163113E-4;2,596177394E-3;-6,108652451E-4
1,810582458E1;-1,374446787E-3;2,748893574E-3;-4,581489484E-4
1,820582459E1;-3,054326226E-4;2,748893574E-3;-6,108652451E-4
1,830582458E1;0,000000000E0;2,290744567E-3;-1,527163113E-4
1,840582458E1;1,374446787E-3;1,832595794E-3;-3,054326226E-4
1,850582459E1;4,581489484E-4;-6,108652451E-4;0,000000000E0
1,860582458E1;0,000000000E0;-6,108652451E-4;-3,054326226E-4
1,870582459E1;-4,581489484E-4;-3,817907767E-3;4,581489484E-4
1,880582458E1;-1,679879380E-3;-5,039638374E-3;6,108652451E-4
1,890582458E1;1,527163113E-4;-6,872233935E-3;3,054326226E-4
1,900582459E1;1,221730490E-3;-2,901609987E-3;-9,162978968E-4
1,910582458E1;1,527163113E-4;-6,108652335E-3;4,581489484E-4
1,920582459E1;0,000000000E0;-3,817907767E-3;1,527163113E-4
1,930582458E1;1,985311974E-3;-1,221730490E-3;-7,635815418E-4
1,940582458E1;-4,581489484E-4;6,108652451E-4;-1,527163113E-4
1,950582459E1;-1,069014193E-3;9,162978968E-4;6,108652451E-4
1,960582458E1;-3,054326226E-4;5,650503561E-3;-4,581489484E-4
1,970582459E1;-4,581489484E-4;7,788531948E-3;-1,527163113E-4
1,980582458E1;1,221730490E-3;9,926560335E-3;-4,581489484E-4
1,990582458E1;3,054326226E-4;1,053742506E-2;-4,581489484E-4
2,000582459E1;4,581489484E-4;1,053742506E-2;-7,635815418E-4
2,010582458E1;-1,527163113E-4;8,399397135E-3;-3,054326226E-4
2,020582459E1;1,527163113E-4;6,108652335E-3;-4,581489484E-4
2,030582458E1;0,000000000E0;4,886921961E-3;-4,581489484E-4
2,040582458E1;9,162978968E-4;1,832595794E-3;-3,054326226E-4
2,050582459E1;1,527163084E-3;3,054326226E-4;-4,581489484E-4
2,060582458E1;-6,108652451E-4;-3,054326167E-3;3,054326226E-4
2,070582459E1;-1,527163113E-4;-3,817907767E-3;3,054326226E-4
2,080582458E1;-7,635815418E-4;-5,955935922E-3;1,527163113E-4
2,090582458E1;-1,527163113E-4;-7,330383174E-3;1,527163113E-4
2,100582459E1;-1,221730490E-3;-8,552113548E-3;4,581489484E-4
2,110582458E1;-3,054326226E-4;-8,704829961E-3;9,162978968E-4
2,120582459E1;-1,527163084E-3;-9,162978269E-3;1,069014193E-3
2,130582458E1;4,581489484E-4;-7,483099122E-3;4,581489484E-4
2,140582458E1;-3,054326226E-4;-5,955935922E-3;6,108652451E-4
2,150582459E1;-6,108652451E-4;-3,359758761E-3;6,108652451E-4
2,160582458E1;-1,527163113E-4;-2,138028387E-3;4,581489484E-4
2,170582459E1;-1,069014193E-3;1,985311974E-3;4,581489484E-4
2,180582458E1;-1,679879380E-3;2,748893574E-3;6,108652451E-4
2,190582458E1;-1,069014193E-3;5,955935922E-3;3,054326226E-4
2,200582459E1;-3,054326226E-4;7,177666761E-3;6,108652451E-4
2,210582458E1;6,108652451E-4;7,635815535E-3;3,054326226E-4
2,220582459E1;1,527163084E-3;8,093964309E-3;7,635815418E-4
2,230582458E1;1,527163084E-3;8,857546374E-3;4,581489484E-4
2,240582458E1;1,527163084E-3;6,872233935E-3;6,108652451E-4
2,250582459E1;-6,108652451E-4;4,886921961E-3;9,162978968E-4
2,260582458E1;-1,374446787E-3;3,817907767E-3;1,069014193E-3
2,270582459E1;-1,679879380E-3;1,527163084E-3;7,635815418E-4
2,280582458E1;-2,138028387E-3;-6,108652451E-4;1,374446787E-3
2,290582458E1;1,221730490E-3;-1,832595794E-3;6,108652451E-4
2,300582459E1;6,108652451E-4;-3,970623948E-3;1,069014193E-3
2,310582458E1;1,679879380E-3;-5,192354787E-3;4,581489484E-4
2,320582459E1;1,069014193E-3;-5,955935922E-3;1,221730490E-3
2,330582458E1;0,000000000E0;-6,108652335E-3;1,374446787E-3
2,340582458E1;-1,374446787E-3;-5,497787148E-3;1,374446787E-3
2,350582459E1;-1,221730490E-3;-4,734205548E-3;1,832595794E-3
2,360582458E1;-1,374446787E-3;-4,276056774E-3;1,069014193E-3
2,370582459E1;1,527163113E-4;-7,635815418E-4;7,635815418E-4
2,380582458E1;6,108652451E-4;2,138028387E-3;7,635815418E-4
2,390582458E1;9,162978968E-4;3,054326167E-3;4,581489484E-4
2,400582459E1;9,162978968E-4;4,123340361E-3;6,108652451E-4
2,410582458E1;6,108652451E-4;4,123340361E-3;1,679879380E-3
2,420582459E1;-1,527163113E-4;4,123340361E-3;1,527163084E-3
2,430582458E1;1,374446787E-3;3,665191587E-3;6,108652451E-4
2,440582458E1;-3,054326226E-4;1,527163113E-4;1,527163084E-3
2,450582459E1;1,527163113E-4;6,108652451E-4;1,527163084E-3
2,460582458E1;3,054326226E-4;-9,162978968E-4;1,221730490E-3
2,470582459E1;-1,527163113E-4;-1,527163084E-3;1,527163084E-3
2,480582458E1;1,069014193E-3;-1,832595794E-3;1,374446787E-3
2,490582458E1;1,374446787E-3;-2,290744567E-3;1,374446787E-3
2,500582459E1;-7,635815418E-4;-2,748893574E-3;1,527163084E-3
2,510582458E1;-9,162978968E-4;-1,069014193E-3;9,162978968E-4
2,520582459E1;-2,138028387E-3;-1,527163113E-4;1,069014193E-3
2,530582458E1;-2,138028387E-3;4,581489484E-4;6,108652451E-4
2,540582458E1;1,221730490E-3;1,527163084E-3;-6,108652451E-4
2,550582459E1;7,635815418E-4;4,581489484E-4;-1,527163113E-4
2,560582458E1;1,679879380E-3;-4,581489484E-4;-4,581489484E-4
2,570582459E1;9,162978968E-4;-2,596177394E-3;0,000000000E0
2,580582458E1;-2,138028387E-3;-2,748893574E-3;6,108652451E-4
2,590582458E1;-2,138028387E-3;-2,443460980E-3;3,054326226E-4
2,600582459E1;-1,374446787E-3;-3,817907767E-3;3,054326226E-4
2,610582458E1;0,000000000E0;-3,359758761E-3;-6,108652451E-4
2,620582459E1;2,290744567E-3;-5,955935922E-3;-9,162978968E-4
2,630582458E1;9,162978968E-4;-5,955935922E-3;-1,069014193E-3
2,640582458E1;1,069014193E-3;-6,719517522E-3;-1,374446787E-3
2,650582459E1;1,985311974E-3;-8,093964309E-3;-1,832595794E-3
2,660582458E1;3,665191587E-3;-7,635815535E-3;-2,748893574E-3
2,670582459E1;-9,162978968E-4;-1,298088674E-2;-6,108652451E-4
2,680582459E1;2,443460980E-3;-1,099557430E-2;-1,374446787E-3
2,690582458E1;-2,748893574E-3;-1,221730467E-2;1,527163113E-4
2,700582459E1;-2,290744567E-3;-7,483099122E-3;-3,054326226E-4
2,710582458E1;-2,138028387E-3;-1,832595794E-3;-1,374446787E-3
2,720582459E1;-1,527163084E-3;1,527163113E-4;-1,985311974E-3
2,730582459E1;-0,000000000E0;6,108652451E-4;-1,679879380E-3
2,740582458E1;-4,581489484E-4;1,069014193E-3;-1,527163084E-3
2,750582459E1;-3,054326226E-4;1,832595794E-3;-2,748893574E-3
2,760582458E1;-3,054326226E-4;2,290744567E-3;-3,207042580E-3
2,770582459E1;2,290744567E-3;4,581489135E-3;-5,039638374E-3
2,780582459E1;7,635815418E-4;3,817907767E-3;-4,886921961E-3
2,790582458E1;-2,748893574E-3;1,374446787E-3;-5,497787148E-3
2,800582459E1;-3,970623948E-3;0,000000000E0;-5,345070735E-3
2,810582458E1;-7,635815418E-4;-3,054326167E-3;-6,414085161E-3
2,820582459E1;7,635815418E-4;-4,581489135E-3;-6,872233935E-3
2,830582459E1;6,108652451E-4;-1,130100712E-2;-7,788531948E-3
2,840582458E1;0,000000000E0;-1,420261711E-2;-8,093964309E-3
2,850582459E1;-3,512475174E-3;-2,367102914E-2;-9,010262787E-3
2,860582458E1;-4,123340361E-3;-2,962696366E-2;-9,773843922E-3
2,870582459E1;-3,054326167E-3;-3,268129006E-2;-1,023199316E-2
2,880582459E1;5,345070735E-3;-2,122756653E-2;-1,282817032E-2
2,890582458E1;3,970623948E-3;-1,740965992E-2;-1,237002108E-2
2,900582459E1;0,000000000E0;-3,665191587E-3;-1,359175146E-2
2,910582458E1;2,443460980E-3;2,901609987E-3;-1,511891466E-2
2,920582459E1;-4,123340361E-3;5,497787148E-3;-1,588249579E-2
2,930582459E1;-4,581489484E-4;7,330383174E-3;-1,710422710E-2
2,940582458E1;2,138028387E-3;7,330383174E-3;-1,771509275E-2
2,950582459E1;2,138028387E-3;5,650503561E-3;-1,634064503E-2
2,960582458E1;1,527163084E-3;4,581489135E-3;-1,343903504E-2
2,970582459E1;4,581489484E-4;4,428773187E-3;-1,267545391E-2
2,980582459E1;-2,443460980E-3;2,443460980E-3;-1,099557430E-2
2,990582458E1;-3,817907767E-3;1,221730490E-3;-1,145372353E-2
3,000582459E1;4,581489484E-4;-3,054326167E-3;-1,237002108E-2
3,010582458E1;1,221730490E-3;-6,872233935E-3;-1,267545391E-2
3,020582459E1;2,596177394E-3;-1,038470957E-2;-1,313360315E-2
3,030582459E1;-7,635815418E-4;-1,313360315E-2;-1,298088674E-2
3,040582458E1;-4,886921961E-3;-1,359175146E-2;-1,267545391E-2
3,050582459E1;-7,941247895E-3;-1,099557430E-2;-1,282817032E-2
3,060582458E1;-5,650503561E-3;-1,832595794E-3;-1,343903504E-2
3,070582459E1;-1,069014193E-3;1,221730490E-3;-1,389718428E-2
3,080582459E1;3,207042580E-3;5,650503561E-3;-1,313360315E-2
3,090582458E1;1,679879380E-3;6,108652335E-3;-1,252273750E-2
3,100582459E1;-7,635815418E-4;3,817907767E-3;-1,084285788E-2
3,110582458E1;-2,443460980E-3;1,069014193E-3;-1,053742506E-2
3,120582459E1;-7,635815535E-3;-3,359758761E-3;-1,114829071E-2
3,130582459E1;1,374446787E-3;-5,803219974E-3;-1,191187184E-2
3,140582458E1;-3,054326226E-4;-6,414085161E-3;-1,267545391E-2
3,150582459E1;1,374446787E-3;-3,207042580E-3;-1,282817032E-2
3,160582458E1;7,635815418E-4;-1,985311974E-3;-1,252273750E-2
3,170582459E1;-7,635815418E-4;2,901609987E-3;-1,221730467E-2
3,180582459E1;4,581489484E-4;5,039638374E-3;-1,175915636E-2
3,190582458E1;-3,054326226E-4;7,941247895E-3;-1,130100712E-2
3,200582458E1;-1,069014193E-3;9,315694682E-3;-1,130100712E-2
3,210582458E1;2,138028387E-3;1,634064503E-2;-1,237002108E-2
3,220582458E1;1,527163113E-4;1,817324013E-2;-1,191187184E-2
3,230582458E1;9,162978968E-4;2,275473066E-2;-1,267545391E-2
3,240582459E1;1,069014193E-3;2,306016348E-2;-1,221730467E-2
3,250582458E1;1,069014193E-3;2,000583708E-2;-1,053742506E-2
3,260582458E1;4,123340361E-3;1,970040426E-2;-1,069014147E-2
3,270582458E1;3,817907767E-3;1,649336144E-2;-9,468411095E-3
3,280582458E1;3,359758761E-3;1,695151068E-2;-9,315694682E-3
3,290582459E1;-1,527163084E-3;1,572977938E-2;-9,773843922E-3
3,300582458E1;-9,162978269E-3;1,191187184E-2;-8,399397135E-3
3,310582458E1;-2,596177394E-3;7,330383174E-3;-8,857546374E-3
3,320582458E1;-2,290744567E-3;3,512475174E-3;-8,246680722E-3
3,330582458E1;1,679879380E-3;-2,596177394E-3;-7,177666761E-3
3,340582459E1;4,428773187E-3;-3,665191587E-3;-6,108652335E-3
3,350582458E1;7,483099122E-3;-2,443460980E-3;-5,039638374E-3
3,360582458E1;8,246680722E-3;7,635815418E-4;-4,428773187E-3
3,370582458E1;3,665191587E-3;9,468411095E-3;-3,665191587E-3
3,380582458E1;-4,428773187E-3;1,710422710E-2;-3,665191587E-3
3,390582459E1;-6,414085161E-3;1,740965992E-2;-3,054326167E-3
3,400582458E1;-6,108652335E-3;1,664607786E-2;-3,054326167E-3
3,410582458E1;-9,162978968E-4;1,588249579E-2;-4,123340361E-3
3,420582458E1;2,290744567E-3;1,603521220E-2;-3,970623948E-3
3,430582458E1;4,581489135E-3;1,664607786E-2;-3,665191587E-3
3,440582459E1;2,138028387E-3;1,695151068E-2;-1,069014193E-3
3,450582458E1;3,970623948E-3;1,572977938E-2;0,000000000E0
3,460582458E1;2,290744567E-3;8,093964309E-3;1,679879380E-3
3,470582458E1;2,138028387E-3;3,359758761E-3;2,138028387E-3
3,480582458E1;-1,832595794E-3;-3,207042580E-3;1,832595794E-3
3,490582459E1;-3,665191587E-3;-5,345070735E-3;1,832595794E-3
3,500582458E1;-6,261368748E-3;-4,581489135E-3;1,679879380E-3
3,510582458E1;-5,955935922E-3;-2,901609987E-3;1,832595794E-3
3,520582458E1;-1,679879380E-3;4,581489484E-4;2,138028387E-3
3,530582458E1;2,138028387E-3;2,443460980E-3;2,748893574E-3
3,540582459E1;3,970623948E-3;6,108652335E-3;3,970623948E-3
3,550582458E1;3,665191587E-3;8,246680722E-3;3,817907767E-3
3,560582458E1;-3,359758761E-3;6,414085161E-3;4,428773187E-3
3,570582458E1;-3,817907767E-3;5,955935922E-3;3,665191587E-3
3,580582458E1;-1,832595794E-3;3,054326226E-4;3,359758761E-3
3,590582459E1;1,221730490E-3;-1,374446787E-3;3,359758761E-3
3,600582458E1;5,497787148E-3;2,748893574E-3;3,054326167E-3
3,610582458E1;4,276056774E-3;7,024950348E-3;1,679879380E-3
3,620582458E1;2,138028387E-3;5,803219974E-3;2,443460980E-3
3,630582458E1;-3,512475174E-3;-1,069014193E-3;3,970623948E-3
3,640582459E1;-3,817907767E-3;-3,054326167E-3;3,970623948E-3
3,650582458E1;1,374446787E-3;1,527163113E-4;2,901609987E-3
3,660582458E1;2,748893574E-3;1,221730490E-3;2,596177394E-3
3,670582458E1;5,192354787E-3;2,138028387E-3;2,290744567E-3
3,680582458E1;5,497787148E-3;7,635815418E-4;2,443460980E-3
3,690582459E1;3,817907767E-3;-4,581489484E-4;2,596177394E-3
3,700582458E1;3,512475174E-3;-3,054326226E-4;2,748893574E-3
3,710582458E1;1,679879380E-3;1,374446787E-3;2,748893574E-3
3,720582458E1;0,000000000E0;2,443460980E-3;2,290744567E-3
3,730582458E1;-1,527163084E-3;2,443460980E-3;1,527163113E-4
3,740582459E1;1,832595794E-3;3,970623948E-3;-4,581489484E-4
3,750582458E1;6,414085161E-3;4,276056774E-3;0,000000000E0
3,760582458E1;8,246680722E-3;5,955935922E-3;-4,581489484E-4
3,770582458E1;1,038470957E-2;7,330383174E-3;-9,162978968E-4
3,780582458E1;5,650503561E-3;6,261368748E-3;-1,527163084E-3
3,790582459E1;1,374446787E-3;6,108652335E-3;-2,290744567E-3
3,800582458E1;-2,901609987E-3;3,207042580E-3;-1,527163084E-3
3,810582458E1;-2,290744567E-3;-9,926560335E-3;6,108652451E-4
3,820582458E1;-1,985311974E-3;-1,710422710E-2;1,679879380E-3
3,830582458E1;1,221730490E-3;-2,443460934E-2;3,665191587E-3
3,840582459E1;5,345070735E-3;-2,153299935E-2;3,817907767E-3
3,850582458E1;7,483099122E-3;-1,191187184E-2;3,054326167E-3
3,860582458E1;3,512475174E-3;-8,399397135E-3;3,054326167E-3
3,870582458E1;1,679879380E-3;-4,581489484E-4;1,985311974E-3
3,880582458E1;-3,207042580E-3;1,374446787E-3;1,985311974E-3
3,890582459E1;-5,192354787E-3;2,748893574E-3;2,290744567E-3
3,900582458E1;1,221730490E-3;8,399397135E-3;4,123340361E-3
3,910582458E1;6,108652335E-3;9,773843922E-3;5,497787148E-3
3,920582458E1;8,552113548E-3;7,330383174E-3;8,857546374E-3
3,930582458E1;8,552113548E-3;4,581489484E-4;1,084285788E-2
3,940582459E1;3,970623948E-3;-1,832595654E-2;1,313360315E-2
3,950582458E1;-1,679879380E-3;-2,779436857E-2;1,466076635E-2
3,960582458E1;-2,901609987E-3;-2,703078650E-2;1,328631863E-2
3,970582458E1;-3,817907767E-3;-2,306016348E-2;1,343903504E-2
3,980582458E1;2,290744567E-3;-1,282817032E-2;1,298088674E-2
3,990582459E1;3,054326167E-3;-7,941247895E-3;1,404990070E-2
4,000582458E1;5,192354787E-3;-3,054326167E-3;1,725694351E-2
4,010582458E1;6,414085161E-3;9,162978968E-4;1,924225502E-2
4,020582458E1;3,512475174E-3;1,328631863E-2;2,321287990E-2
4,030582458E1;0,000000000E0;1,710422710E-2;2,458732575E-2
4,040582459E1;-4,581489135E-3;2,046398632E-2;2,641992271E-2
4,050582458E1;-2,443460980E-3;1,771509275E-2;2,641992271E-2
4,060582458E1;2,138028387E-3;5,039638374E-3;2,443460934E-2
4,070582458E1;9,162978968E-4;-4,886921961E-3;2,321287990E-2
4,080582458E1;4,581489484E-4;-1,466076635E-2;2,107485011E-2
4,090582459E1;3,512475174E-3;-1,237002108E-2;2,076941915E-2
4,100582458E1;-2,596177394E-3;-6,872233935E-3;2,092213556E-2
4,110582458E1;-3,054326167E-3;-5,039638374E-3;2,122756653E-2
4,120582458E1;-3,359758761E-3;-6,719517522E-3;2,199114859E-2
4,130582458E1;3,054326226E-4;-1,343903504E-2;2,199114859E-2
4,140582459E1;9,162978968E-4;-1,252273750E-2;2,229658142E-2
4,150582458E1;3,817907767E-3;-4,123340361E-3;2,214386500E-2
4,160582458E1;3,665191587E-3;-1,221730490E-3;2,244929783E-2
4,170582458E1;-2,901609987E-3;-5,497787148E-3;2,657263726E-2
4,180582458E1;-5,345070735E-3;-3,512475174E-3;2,718350291E-2
4,190582459E1;-3,970623948E-3;8,093964309E-3;2,474004216E-2
4,200582458E1;-6,108652451E-4;1,496619824E-2;2,367102914E-2
4,210582458E1;3,512475174E-3;2,397646010E-2;1,985312067E-2
4,220582458E1;4,428773187E-3;2,932153270E-2;1,832595654E-2
4,230582458E1;3,665191587E-3;3,527746722E-2;1,466076635E-2
4,240582459E1;1,527163084E-3;3,466660157E-2;1,313360315E-2
4,250582458E1;-2,748893574E-3;2,489275858E-2;1,130100712E-2
4,260582458E1;-5,497787148E-3;1,878410578E-2;1,099557430E-2
4,270582458E1;-3,665191587E-3;1,145372353E-2;8,093964309E-3
4,280582458E1;-3,359758761E-3;3,970623948E-3;6,414085161E-3
4,290582459E1;6,108652451E-4;-1,114829071E-2;1,221730490E-3
4,300582458E1;1,374446787E-3;-1,802052557E-2;-1,374446787E-3
4,310582458E1;1,069014193E-3;-2,015855350E-2;-5,192354787E-3
4,320582458E1;-3,665191587E-3;-1,695151068E-2;-4,581489135E-3
4,330582458E1;-6,108652335E-3;-2,748893574E-3;-2,901609987E-3
4,340582459E1;-8,246680722E-3;3,054326167E-3;-1,832595794E-3
4,350582458E1;-9,162978968E-4;7,024950348E-3;-3,054326226E-4
4,360582458E1;1,679879380E-3;4,886921961E-3;1,221730490E-3
4,370582458E1;5,345070735E-3;4,123340361E-3;2,443460980E-3
4,380582458E1;-4,123340361E-3;7,177666761E-3;7,635815418E-4
4,390582459E1;-3,207042580E-3;1,374446787E-2;-4,581489484E-4
4,400582459E1;-5,803219974E-3;1,771509275E-2;-3,359758761E-3
4,410582458E1;-2,596177394E-3;1,970040426E-2;-4,886921961E-3
4,420582458E1;2,290744567E-3;1,817324013E-2;-3,970623948E-3
4,430582458E1;2,901609987E-3;1,221730467E-2;-1,832595794E-3
4,440582459E1;8,093964309E-3;2,596177394E-3;3,054326226E-4
4,450582459E1;4,734205548E-3;-2,901609987E-3;1,679879380E-3
4,460582458E1;-3,665191587E-3;-1,206458826E-2;2,748893574E-3
4,470582458E1;-7,330383174E-3;-1,435533352E-2;1,527163084E-3
4,480582458E1;-1,267545391E-2;-1,970040426E-2;-3,054326226E-4
4,490582459E1;-6,414085161E-3;-1,771509275E-2;-1,832595794E-3
4,500582459E1;4,276056774E-3;-1,466076635E-2;-3,207042580E-3
4,510582458E1;2,596177394E-3;-1,679879427E-2;-4,581489484E-4
4,520582458E1;-2,901609987E-3;-1,298088674E-2;4,276056774E-3
4,530582458E1;-6,414085161E-3;-5,345070735E-3;4,886921961E-3
4,540582459E1;-2,596177394E-3;1,084285788E-2;3,207042580E-3
4,550582459E1;-3,970623948E-3;1,374446787E-2;2,748893574E-3
4,560582458E1;-1,527163084E-3;1,374446787E-2;-7,635815418E-4
4,570582458E1;-2,596177394E-3;1,007927675E-2;-6,108652451E-4
4,580582458E1;-2,138028387E-3;1,237002108E-2;-2,748893574E-3
4,590582459E1;-2,748893574E-3;1,542434748E-2;-3,054326167E-3
4,600582459E1;-5,650503561E-3;1,328631863E-2;-2,138028387E-3
4,610582458E1;-5,192354787E-3;1,114829071E-2;-1,527163084E-3
4,620582458E1;1,527163113E-4;2,901609987E-3;-3,054326226E-4
4,630582458E1;-1,221730490E-3;-8,857546374E-3;1,527163113E-4
4,640582459E1;-4,734205548E-3;-1,175915636E-2;3,054326226E-4
4,650582459E1;-8,552113548E-3;-5,955935922E-3;-1,832595794E-3
4,660582458E1;-9,621127509E-3;-2,901609987E-3;-1,985311974E-3
4,670582458E1;-4,123340361E-3;-9,162978968E-4;-1,679879380E-3
4,680582458E1;-4,581489484E-4;-1,069014193E-3;-1,527163084E-3
4,690582459E1;4,123340361E-3;-5,192354787E-3;-3,054326226E-4
4,700582459E1;5,497787148E-3;-6,566801574E-3;3,054326226E-4
4,710582458E1;-5,192354787E-3;-6,719517522E-3;2,596177394E-3
4,720582458E1;-9,773843922E-3;-3,207042580E-3;2,290744567E-3
4,730582458E1;-1,084285788E-2;-3,054326167E-3;1,221730490E-3
4,740582459E1;-1,191187184E-2;-6,719517522E-3;2,596177394E-3
4,750582459E1;-1,527163113E-4;-3,207042580E-3;-0,000000000E0
4,760582458E1;2,596177394E-3;-1,832595794E-3;0,000000000E0
4,770582458E1;5,497787148E-3;6,414085161E-3;-1,221730490E-3
4,780582458E1;-6,108652451E-4;6,261368748E-3;3,054326226E-4
4,790582459E1;-8,246680722E-3;1,160643995E-2;-6,108652451E-4
4,800582459E1;-1,572977938E-2;5,192354787E-3;1,679879380E-3
4,810582458E1;-1,221730467E-2;-3,054326226E-4;3,054326226E-4
4,820582458E1;-9,468411095E-3;-7,024950348E-3;1,527163084E-3
4,830582458E1;-2,290744567E-3;-5,039638374E-3;4,581489484E-4
4,840582459E1;-3,054326226E-4;-4,123340361E-3;4,581489484E-4
4,850582459E1;-3,054326226E-4;-3,512475174E-3;7,635815418E-4
4,860582458E1;-6,108652451E-4;-3,970623948E-3;3,054326226E-4
4,870582458E1;-6,719517522E-3;-4,428773187E-3;4,581489484E-4
4,880582458E1;-7,788531948E-3;-4,581489484E-4;7,635815418E-4
4,890582459E1;-6,566801574E-3;2,138028387E-3;4,581489484E-4
4,900582459E1;-2,138028387E-3;5,803219974E-3;6,108652451E-4
4,910582458E1;-4,581489484E-4;5,955935922E-3;1,679879380E-3
4,920582458E1;1,985311974E-3;3,512475174E-3;1,832595794E-3
4,930582458E1;6,108652451E-4;1,374446787E-3;1,527163084E-3
4,940582459E1;-2,748893574E-3;-9,162978968E-4;-7,635815418E-4
4,950582459E1;-5,039638374E-3;-3,665191587E-3;1,527163113E-4
4,960582458E1;-6,566801574E-3;-1,679879380E-3;-1,221730490E-3
4,970582458E1;-6,108652335E-3;-1,221730490E-3;-6,108652451E-4
4,980582458E1;-5,497787148E-3;-2,596177394E-3;3,054326226E-4
4,990582459E1;-3,207042580E-3;-2,901609987E-3;1,069014193E-3
5,000582459E1;1,374446787E-3;-1,069014193E-3;-4,581489484E-4
5,010582458E1;2,748893574E-3;1,527163113E-4;-7,635815418E-4
5,020582458E1;-6,108652335E-3;-1,527163084E-3;7,635815418E-4
5,030582458E1;-9,315694682E-3;-2,138028387E-3;1,069014193E-3
5,040582459E1;-8,704829961E-3;7,635815418E-4;4,581489484E-4
5,050582459E1;-7,177666761E-3;7,635815418E-4;1,527163113E-4
5,060582458E1;-1,985311974E-3;-1,985311974E-3;0,000000000E0
5,070582458E1;2,901609987E-3;0,000000000E0;-4,581489484E-4
5,080582458E1;1,069014193E-3;-2,748893574E-3;6,108652451E-4
5,090582459E1;-3,665191587E-3;-2,138028387E-3;1,221730490E-3
5,100582459E1;-1,466076635E-2;-1,221730490E-3;2,290744567E-3
5,110582458E1;-1,450804994E-2;1,679879380E-3;7,635815418E-4
5,120582458E1;-5,650503561E-3;1,832595794E-3;0,000000000E0
5,130582458E1;2,901609987E-3;2,901609987E-3;-1,374446787E-3
5,140582459E1;4,276056774E-3;1,985311974E-3;-1,221730490E-3
5,150582459E1;-4,581489484E-4;7,635815418E-4;1,527163113E-4
5,160582458E1;-5,803219974E-3;1,221730490E-3;7,635815418E-4
5,170582458E1;-1,069014147E-2;1,069014193E-3;3,054326226E-4
5,180582458E1;-1,237002108E-2;-4,123340361E-3;1,069014193E-3
5,190582459E1;-4,428773187E-3;-3,512475174E-3;-3,054326226E-4
5,200582459E1;-1,527163084E-3;-4,886921961E-3;-6,108652451E-4
5,210582458E1;3,665191587E-3;-2,138028387E-3;-1,679879380E-3
5,220582458E1;2,290744567E-3;-0,000000000E0;-4,581489484E-4
5,230582458E1;-7,024950348E-3;1,679879380E-3;4,581489484E-4
5,240582459E1;-9,468411095E-3;2,138028387E-3;1,221730490E-3
5,250582459E1;-8,857546374E-3;1,527163084E-3;7,635815418E-4
5,260582458E1;-7,177666761E-3;7,635815418E-4;6,108652451E-4
5,270582458E1;6,108652451E-4;1,221730490E-3;-3,054326226E-4
5,280582458E1;1,679879380E-3;9,162978968E-4;-4,581489484E-4
5,290582459E1;4,886921961E-3;6,108652451E-4;-1,527163113E-4
5,300582459E1;-1,069014193E-3;-0,000000000E0;1,069014193E-3
5,310582458E1;-3,054326167E-3;-1,527163084E-3;2,138028387E-3
5,320582458E1;-7,330383174E-3;-1,985311974E-3;1,832595794E-3
5,330582458E1;-4,734205548E-3;-4,276056774E-3;2,138028387E-3
5,340582459E1;-1,527163113E-4;-3,054326167E-3;1,221730490E-3
5,350582459E1;6,719517522E-3;4,123340361E-3;4,581489484E-4
5,360582458E1;8,246680722E-3;1,145372353E-2;-4,581489484E-4
5,370582458E1;5,803219974E-3;1,496619824E-2;6,108652451E-4
5,380582458E1;-9,621127509E-3;1,450804994E-2;1,374446787E-3
5,390582459E1;-3,970623948E-3;1,114829071E-2;1,374446787E-3
5,400582459E1;1,832595794E-3;6,108652451E-4;4,581489135E-3
5,410582458E1;8,857546374E-3;1,374446787E-3;3,054326167E-3
5,420582458E1;1,069014193E-3;-2,443460980E-3;6,566801574E-3
5,430582458E1;-2,596177394E-3;9,162978968E-4;7,941247895E-3
5,440582459E1;-6,872233935E-3;6,261368748E-3;8,704829961E-3
5,450582459E1;-3,817907767E-3;1,343903504E-2;7,024950348E-3
5,460582458E1;1,527163084E-3;1,542434748E-2;1,114829071E-2
5,470582458E1;9,621127509E-3;1,817324013E-2;1,343903504E-2
5,480582458E1;1,527163107E-2;2,412917651E-2;1,710422710E-2
5,490582459E1;1,237002108E-2;2,428189293E-2;1,832595654E-2
5,500582459E1;2,901609987E-3;1,557706390E-2;2,138028294E-2
5,510582458E1;-2,138028387E-3;1,252273750E-2;2,076941915E-2
5,520582458E1;-1,679879380E-3;4,276056774E-3;2,260201424E-2
5,530582458E1;7,788531948E-3;8,704829961E-3;2,107485011E-2
5,540582459E1;1,404990070E-2;1,618792862E-2;2,443460934E-2
5,550582459E1;1,618792862E-2;2,855795063E-2;2,321287990E-2
5,560582458E1;1,527163113E-4;2,474004216E-2;2,809980139E-2
5,570582458E1;-4,734205548E-3;2,229658142E-2;2,794708498E-2
5,580582458E1;-3,970623948E-3;8,399397135E-3;3,100141138E-2
5,590582459E1;-9,162978968E-4;8,246680722E-3;3,145955876E-2
5,600582459E1;8,246680722E-3;8,399397135E-3;3,420845419E-2
5,610582458E1;9,468411095E-3;1,420261711E-2;3,527746722E-2
5,620582458E1;6,872233935E-3;1,618792862E-2;3,573561832E-2
5,630582458E1;-3,207042580E-3;1,084285788E-2;3,833179548E-2
5,640582459E1;-3,817907767E-3;9,010262787E-3;3,924809024E-2
5,650582459E1;-4,581489484E-4;7,635815535E-3;4,062253982E-2
5,660582458E1;4,734205548E-3;9,315694682E-3;4,062253982E-2
5,670582458E1;1,221730467E-2;9,010262787E-3;4,306599870E-2
5,680582458E1;8,857546374E-3;8,399397135E-3;4,337143153E-2
5,690582459E1;7,635815418E-4;5,192354787E-3;4,444044828E-2
5,700582459E1;-9,162978968E-4;3,359758761E-3;4,474587739E-2
5,710582458E1;-3,207042580E-3;1,374446787E-3;4,428773001E-2
5,720582458E1;-2,138028387E-3;-1,221730490E-3;4,581489414E-2
5,730582458E1;5,650503561E-3;-3,054326226E-4;4,581489414E-2
5,740582459E1;6,719517522E-3;-3,054326226E-4;4,596760869E-2
5,750582459E1;3,054326167E-3;-1,527163084E-3;4,627304152E-2
5,760582458E1;2,443460980E-3;-1,985311974E-3;4,612032697E-2
5,770582458E1;-5,345070735E-3;-4,581489135E-3;4,734205827E-2
5,780582458E1;3,054326226E-4;-1,527163084E-3;4,489859566E-2
5,790582459E1;1,832595794E-3;-6,872233935E-3;4,581489414E-2
5,800582459E1;3,665191587E-3;-8,399397135E-3;4,657847434E-2
5,810582458E1;6,108652451E-4;-7,024950348E-3;4,795292020E-2
5,820582458E1;-2,748893574E-3;-7,177666761E-3;4,886921868E-2
5,830582458E1;-1,832595794E-3;-9,162978968E-4;4,673119262E-2
5,840582459E1;3,054326167E-3;3,359758761E-3;4,535674304E-2
5,850582459E1;4,123340361E-3;3,665191587E-3;4,489859566E-2
5,860582458E1;6,872233935E-3;1,679879380E-3;4,459316283E-2
5,870582458E1;4,276056774E-3;0,000000000E0;4,505131021E-2
5,880582458E1;3,054326226E-4;1,527163084E-3;4,596760869E-2
5,890582459E1;-1,069014193E-3;3,054326226E-4;4,673119262E-2
5,900582459E1;2,138028387E-3;-2,138028387E-3;4,474587739E-2
5,910582458E1;4,581489135E-3;-5,192354787E-3;4,535674304E-2
5,920582458E1;5,497787148E-3;-7,635815535E-3;4,398229718E-2
5,930582458E1;4,276056774E-3;-5,039638374E-3;4,550946131E-2
5,940582459E1;-7,635815418E-4;-1,374446787E-3;4,657847434E-2
5,950582459E1;-1,832595794E-3;1,527163113E-4;4,734205827E-2
5,960582458E1;-1,832595794E-3;-2,138028387E-3;4,703662544E-2
5,970582458E1;3,054326167E-3;6,108652451E-4;4,474587739E-2
5,980582458E1;5,803219974E-3;-3,359758761E-3;4,550946131E-2
5,990582459E1;4,276056774E-3;-3,207042580E-3;4,550946131E-2
6,000582459E1;6,108652451E-4;-1,985311974E-3;4,657847434E-2
6,010582458E1;-1,069014193E-3;-6,108652451E-4;4,703662544E-2
6,020582458E1;-9,162978968E-4;-1,985311974E-3;4,703662544E-2
6,030582458E1;2,290744567E-3;-1,985311974E-3;4,627304152E-2
6,040582459E1;3,207042580E-3;-3,054326167E-3;4,474587739E-2
6,050582459E1;2,748893574E-3;-2,443460980E-3;4,505131021E-2
6,060582458E1;4,581489484E-4;-9,162978968E-4;4,657847434E-2
6,070582458E1;6,108652451E-4;3,054326167E-3;4,596760869E-2
6,080582458E1;7,635815418E-4;-4,581489484E-4;4,718934000E-2
6,090582459E1;-4,581489484E-4;-2,596177394E-3;4,764748737E-2
6,100582459E1;2,138028387E-3;-1,985311974E-3;4,596760869E-2
6,110582458E1;1,374446787E-3;-1,221730490E-3;4,612032697E-2
6,120582458E1;-7,635815418E-4;9,162978968E-4;4,566217586E-2
6,130582458E1;-2,290744567E-3;2,290744567E-3;4,673119262E-2
6,140582459E1;-4,581489484E-4;2,596177394E-3;4,612032697E-2
6,150582459E1;1,374446787E-3;-1,832595794E-3;4,703662544E-2
6,160582458E1;2,290744567E-3;-2,596177394E-3;4,688390717E-2
6,170582458E1;-3,054326226E-4;-1,374446787E-3;4,703662544E-2
6,180582458E1;-1,985311974E-3;1,221730490E-3;4,657847434E-2
6,190582459E1;-3,665191587E-3;2,138028387E-3;4,642575979E-2
6,200582459E1;-3,817907767E-3;6,108652451E-4;4,596760869E-2
6,210582458E1;-7,635815418E-4;-6,108652335E-3;4,749477282E-2
6,220582458E1;7,635815418E-4;-6,719517522E-3;4,718934000E-2
6,230582458E1;-6,108652451E-4;-3,359758761E-3;4,764748737E-2
6,240582459E1;-4,581489484E-4;1,832595794E-3;4,596760869E-2
6,250582459E1;-6,566801574E-3;2,901609987E-3;4,657847434E-2
6,260582458E1;7,635815418E-4;5,192354787E-3;4,444044828E-2
6,270582458E1;-2,596177394E-3;-4,276056774E-3;4,718934000E-2
6,280582458E1;-1,374446787E-3;-5,497787148E-3;4,764748737E-2
6,290582459E1;-1,527163113E-4;1,679879380E-3;4,703662544E-2
6,300582459E1;-3,054326226E-4;3,817907767E-3;4,596760869E-2
6,310582458E1;-1,527163084E-3;-2,290744567E-3;4,703662544E-2
6,320582458E1;-1,832595794E-3;-3,054326167E-3;4,627304152E-2
6,330582458E1;-3,054326167E-3;-1,985311974E-3;4,627304152E-2
6,340582459E1;-2,443460980E-3;1,374446787E-3;4,566217586E-2
6,350582459E1;-2,290744567E-3;1,221730490E-3;4,688390717E-2
6,360582458E1;-1,832595794E-3;-3,665191587E-3;4,932736978E-2
6,370582458E1;-3,512475174E-3;-3,359758761E-3;4,856378585E-2
6,380582458E1;-1,527163113E-4;-2,443460980E-3;4,718934000E-2
6,390582459E1;-3,054326167E-3;3,054326226E-4;4,703662544E-2
6,400582458E1;-1,679879380E-3;6,872233935E-3;4,550946131E-2
6,410582459E1;-2,443460980E-3;1,069014193E-3;4,734205827E-2
6,420582458E1;-5,650503561E-3;-4,581489135E-3;4,688390717E-2
6,430582459E1;-2,596177394E-3;-7,483099122E-3;4,810563847E-2
6,440582458E1;-3,054326167E-3;-4,123340361E-3;4,810563847E-2
6,450582458E1;-6,108652451E-4;-5,345070735E-3;4,795292020E-2
6,460582459E1;-3,054326226E-4;-3,817907767E-3;4,673119262E-2
6,470582458E1;-3,054326226E-4;-2,443460980E-3;4,703662544E-2
6,480582459E1;-3,359758761E-3;-3,054326167E-3;4,734205827E-2
6,490582458E1;-4,581489135E-3;-2,138028387E-3;4,810563847E-2
6,500582458E1;-1,527163084E-3;-3,054326226E-4;4,841107130E-2
6,510582459E1;-1,527163113E-4;9,162978968E-4;4,780020565E-2
6,520582458E1;-6,108652451E-4;-4,581489484E-4;4,718934000E-2
6,530582459E1;-2,290744567E-3;-2,138028387E-3;4,764748737E-2
6,540582458E1;-4,276056774E-3;-3,817907767E-3;4,780020565E-2
6,550582458E1;-5,650503561E-3;-4,581489135E-3;4,764748737E-2
6,560582459E1;-6,719517522E-3;-8,246680722E-3;4,902193695E-2
6,570582458E1;-4,276056774E-3;-6,414085161E-3;4,932736978E-2
6,580582459E1;4,581489484E-4;-5,039638374E-3;4,856378585E-2
6,590582458E1;1,221730490E-3;-6,108652335E-3;4,886921868E-2
6,600582458E1;-7,635815418E-4;-1,527163084E-3;4,810563847E-2
6,610582459E1;-1,374446787E-3;3,512475174E-3;4,810563847E-2
6,620582458E1;-0,000000000E0;2,748893574E-3;4,902193695E-2
6,630582459E1;1,832595794E-3;4,581489484E-4;4,917465150E-2
6,640582458E1;2,596177394E-3;-1,221730490E-3;4,993823543E-2
6,650582458E1;3,817907767E-3;-1,832595794E-3;4,902193695E-2
6,660582459E1;4,428773187E-3;-1,221730490E-3;4,841107130E-2
6,670582458E1;3,817907767E-3;-6,108652451E-4;4,795292020E-2
6,680582459E1;2,596177394E-3;-1,527163084E-3;4,825835302E-2
6,690582458E1;1,374446787E-3;-2,138028387E-3;4,825835302E-2
6,700582458E1;1,832595794E-3;-1,679879380E-3;4,917465150E-2
6,710582459E1;2,596177394E-3;1,527163084E-3;4,856378585E-2
6,720582458E1;2,596177394E-3;9,162978968E-4;4,856378585E-2
6,730582459E1;5,192354787E-3;1,832595794E-3;4,780020565E-2
6,740582458E1;3,817907767E-3;-1,069014193E-3;4,780020565E-2
6,750582458E1;2,138028387E-3;-3,207042580E-3;4,948008433E-2
6,760582459E1;3,359758761E-3;-4,276056774E-3;4,993823543E-2
6,770582458E1;3,359758761E-3;-4,276056774E-3;4,948008433E-2
6,780582459E1;3,054326167E-3;-4,123340361E-3;4,948008433E-2
6,790582458E1;1,832595794E-3;-1,679879380E-3;5,024366826E-2
6,800582458E1;3,970623948E-3;1,527163084E-3;4,932736978E-2
6,810582459E1;4,886921961E-3;1,069014193E-3;5,024366826E-2
6,820582458E1;2,596177394E-3;4,581489484E-4;5,054909736E-2
6,830582459E1;-9,162978968E-4;-1,527163113E-4;5,085453019E-2
6,840582458E1;3,970623948E-3;4,581489484E-4;5,070181563E-2
6,850582458E1;3,512475174E-3;9,162978968E-4;4,948008433E-2
6,860582459E1;3,054326167E-3;-9,621127509E-3;5,207626149E-2
6,870582458E1;2,290744567E-3;-8,857546374E-3;5,222897977E-2
6,880582459E1;4,581489484E-4;1,374446787E-3;5,070181563E-2
6,890582458E1;2,901609987E-3;8,857546374E-3;4,993823543E-2
6,900582458E1;-3,054326226E-4;1,145372353E-2;4,810563847E-2
6,910582459E1;1,069014193E-3;1,191187184E-2;4,764748737E-2
6,920582458E1;3,207042580E-3;7,941247895E-3;4,612032697E-2
6,930582459E1;6,872233935E-3;4,428773187E-3;4,627304152E-2
6,940582458E1;1,832595794E-3;-8,552113548E-3;5,146539584E-2
6,950582458E1;-2,290744567E-3;-1,557706390E-2;5,146539584E-2
6,960582459E1;6,108652451E-4;-1,466076635E-2;4,902193695E-2
6,970582458E1;2,290744567E-3;-1,023199316E-2;4,734205827E-2
6,980582459E1;3,359758761E-3;-1,221730490E-3;4,566217586E-2
6,990582458E1;8,857546374E-3;-2,901609987E-3;4,749477282E-2
7,000582458E1;5,497787148E-3;-1,527163084E-3;4,780020565E-2
7,010582459E1;3,207042580E-3;-4,886921961E-3;4,902193695E-2
7,020582458E1;-3,054326167E-3;-1,145372353E-2;4,902193695E-2
7,030582459E1;-1,832595794E-3;-1,435533352E-2;4,642575979E-2
7,040582458E1;1,832595794E-3;-1,679879427E-2;4,138612002E-2
7,050582458E1;4,276056774E-3;-1,588249579E-2;3,955352306E-2
7,060582459E1;1,679879380E-3;-1,038470957E-2;3,772092983E-2
7,070582458E1;2,596177394E-3;-5,345070735E-3;3,588833287E-2
7,080582459E1;-2,748893574E-3;-1,099557430E-2;3,405573592E-2
7,090582458E1;-2,748893574E-3;-1,832595654E-2;3,344487399E-2
7,100582458E1;-9,162978968E-4;-2,519819140E-2;2,993239649E-2
7,110582459E1;6,108652451E-4;-2,183843218E-2;2,779436857E-2
7,120582458E1;7,635815418E-4;-1,466076635E-2;2,535090782E-2
7,130582459E1;-2,596177394E-3;-9,315694682E-3;2,336559631E-2
7,140582458E1;-3,054326167E-3;-1,023199316E-2;2,092213556E-2
7,150582458E1;-3,054326226E-4;-1,084285788E-2;1,725694351E-2
7,160582459E1;-6,108652451E-4;-1,252273750E-2;1,634064503E-2
7,170582458E1;-1,832595794E-3;-1,756237634E-2;1,557706390E-2
7,180582459E1;-3,512475174E-3;-1,740965992E-2;1,374446787E-2
7,190582458E1;-3,665191587E-3;-2,092213556E-2;1,130100712E-2
7,200582458E1;-2,748893574E-3;-1,954768784E-2;9,926560335E-3
7,210582459E1;-9,162978968E-4;-1,343903504E-2;7,483099122E-3
7,220582458E1;-1,069014193E-3;-1,267545391E-2;5,955935922E-3
7,230582459E1;-6,108652451E-4;-7,483099122E-3;1,679879380E-3
7,240582458E1;-3,054326226E-4;-4,886921961E-3;1,527163113E-4
7,250582458E1;-0,000000000E0;-6,719517522E-3;-2,443460980E-3
7,260582459E1;-1,679879380E-3;-1,053742506E-2;-4,428773187E-3
7,270582458E1;-1,069014193E-3;-1,908953860E-2;-6,566801574E-3
7,280582459E1;-1,374446787E-3;-1,725694351E-2;-9,162978269E-3
7,290582458E1;1,069014193E-3;-1,466076635E-2;-1,252273750E-2
7,300582458E1;-6,108652451E-4;-1,252273750E-2;-1,252273750E-2
7,310582459E1;-0,000000000E0;-7,941247895E-3;-1,603521220E-2
7,320582458E1;-1,069014193E-3;-6,719517522E-3;-1,725694351E-2
7,330582459E1;-2,290744567E-3;-7,483099122E-3;-1,893682219E-2
7,340582458E1;-5,650503561E-3;-1,160643995E-2;-2,000583708E-2
7,350582458E1;-7,635815418E-4;-1,130100712E-2;-2,336559631E-2
7,360582459E1;1,679879380E-3;-1,206458826E-2;-2,687807009E-2
7,370582458E1;2,138028387E-3;-1,328631863E-2;-2,871066704E-2
7,380582459E1;1,679879380E-3;-1,939497143E-2;-3,191770986E-2
7,390582458E1;-2,290744567E-3;-2,015855350E-2;-3,405573592E-2
7,400582458E1;-2,901609987E-3;-1,771509275E-2;-3,817907721E-2
7,410582459E1;-3,970623948E-3;-1,878410578E-2;-3,772092983E-2
7,420582458E1;4,886921961E-3;-5,955935922E-3;-4,153883830E-2
7,430582459E1;5,650503561E-3;-4,123340361E-3;-4,138612002E-2
7,440582458E1;-1,527163113E-4;-4,581489135E-3;-4,260785133E-2
7,450582458E1;-2,138028387E-3;-6,261368748E-3;-4,276056588E-2
7,460582459E1;-2,443460980E-3;-1,130100712E-2;-4,688390717E-2
7,470582458E1;3,054326226E-4;-1,313360315E-2;-4,856378585E-2
7,480582459E1;3,054326226E-4;-1,099557430E-2;-5,100724846E-2
7,490582458E1;2,138028387E-3;-7,941247895E-3;-5,253441259E-2
7,500582458E1;-2,138028387E-3;-9,773843922E-3;-5,268712714E-2
7,510582459E1;-1,985311974E-3;-8,399397135E-3;-5,375614017E-2
7,520582458E1;-1,985311974E-3;-7,024950348E-3;-5,451972410E-2
7,530582459E1;-7,635815418E-4;-6,414085161E-3;-5,390885845E-2
7,540582458E1;0,000000000E0;-4,123340361E-3;-5,513058975E-2
7,550582458E1;-1,527163084E-3;-4,123340361E-3;-5,467243865E-2
7,560582459E1;-2,596177394E-3;4,581489484E-4;-5,604688451E-2
7,570582458E1;-1,679879380E-3;-0,000000000E0;-5,589416996E-2
7,580582459E1;-2,596177394E-3;2,290744567E-3;-5,589416996E-2
7,590582458E1;3,054326226E-4;2,748893574E-3;-5,528330430E-2
7,600582458E1;-9,162978968E-4;-6,108652451E-4;-5,421429127E-2
7,610582459E1;1,069014193E-3;1,679879380E-3;-5,513058975E-2
7,620582458E1;1,527163113E-4;7,177666761E-3;-5,604688451E-2
7,630582459E1;-8,857546374E-3;4,428773187E-3;-5,497787148E-2
7,640582458E1;-7,330383174E-3;5,803219974E-3;-5,604688451E-2
7,650582458E1;-1,069014193E-3;4,734205548E-3;-5,604688451E-2
7,660582459E1;-1,221730490E-3;-0,000000000E0;-5,451972410E-2
7,670582458E1;2,901609987E-3;-9,162978968E-4;-5,482515693E-2
7,680582459E1;-3,054326226E-4;-4,886921961E-3;-5,467243865E-2
7,690582458E1;-2,748893574E-3;-5,039638374E-3;-5,711590126E-2
7,700582458E1;-7,330383174E-3;-6,566801574E-3;-5,696318299E-2
7,710582459E1;1,527163113E-4;0,000000000E0;-5,665775016E-2
7,720582458E1;-1,527163113E-4;3,054326226E-4;-5,467243865E-2
7,730582459E1;1,374446787E-3;2,748893574E-3;-5,543602258E-2
7,740582458E1;-9,162978968E-4;-1,527163113E-4;-5,467243865E-2
7,750582458E1;-3,817907767E-3;-1,221730490E-3;-5,589416996E-2
7,760582459E1;-5,192354787E-3;-4,581489484E-4;-5,604688451E-2
7,770582458E1;-4,886921961E-3;1,069014193E-3;-5,681046844E-2
7,780582459E1;-3,665191587E-3;1,985311974E-3;-5,635231733E-2
7,790582458E1;1,527163113E-4;1,069014193E-3;-5,558873713E-2
7,800582458E1;-2,901609987E-3;-3,512475174E-3;-5,451972410E-2
7,810582459E1;2,901609987E-3;-2,901609987E-3;-5,497787148E-2
7,820582458E1;3,359758761E-3;-1,832595794E-3;-5,482515693E-2
7,830582459E1;1,069014147E-2;7,024950348E-3;-5,772676691E-2
7,840582458E1;-1,374446787E-3;0,000000000E0;-5,497787148E-2
7,850582458E1;-1,099557430E-2;4,276056774E-3;-5,604688451E-2
7,860582459E1;-5,955935922E-3;5,192354787E-3;-5,665775016E-2
7,870582458E1;-3,970623948E-3;3,817907767E-3;-5,742133409E-2
7,880582459E1;5,497787148E-3;4,581489484E-4;-5,879577994E-2
7,890582458E1;7,483099122E-3;3,054326226E-4;-5,971207842E-2
7,900582458E1;-1,114829071E-2;-5,345070735E-3;-5,772676691E-2
7,910582459E1;-1,053742506E-2;-2,596177394E-3;-5,742133409E-2
7,920582458E1;-9,621127509E-3;-9,621127509E-3;-5,650503561E-2
7,930582459E1;-3,054326167E-3;-6,566801574E-3;-5,681046844E-2
7,940582458E1;5,497787148E-3;-3,207042580E-3;-5,665775016E-2
7,950582458E1;5,955935922E-3;3,817907767E-3;-5,665775016E-2
7,960582459E1;-4,123340361E-3;2,748893574E-3;-5,482515693E-2
7,970582458E1;-7,024950348E-3;2,901609987E-3;-5,619960278E-2
7,980582459E1;-6,108652335E-3;-1,832595794E-3;-5,696318299E-2
7,990582458E1;-3,359758761E-3;-1,527163113E-4;-5,711590126E-2
8,000582458E1;6,414085161E-3;4,581489484E-4;-5,757404864E-2
8,010582459E1;1,679879380E-3;-1,985311974E-3;-5,681046844E-2
8,020582458E1;1,374446787E-3;3,054326226E-4;-5,635231733E-2
8,030582459E1;-5,039638374E-3;-1,985311974E-3;-5,619960278E-2
8,040582458E1;-5,955935922E-3;4,428773187E-3;-5,742133409E-2
8,050582458E1;-4,276056774E-3;7,024950348E-3;-5,818491429E-2
8,060582459E1;-4,581489484E-4;4,734205548E-3;-5,879577994E-2
8,070582458E1;-1,527163113E-4;3,054326226E-4;-5,772676691E-2
8,080582459E1;-6,261368748E-3;-4,734205548E-3;-5,589416996E-2
8,090582458E1;-3,054326226E-4;-3,207042580E-3;-5,635231733E-2
8,100582458E1;-7,788531948E-3;-4,886921961E-3;-5,650503561E-2
8,110582459E1;-1,038470957E-2;-2,748893574E-3;-5,787948146E-2
8,120582458E1;-1,313360315E-2;-5,192354787E-3;-5,558873713E-2
8,130582459E1;-5,192354787E-3;9,162978269E-3;-5,635231733E-2
8,140582458E1;-1,832595794E-3;4,581489135E-3;-5,497787148E-2
8,150582458E1;-3,665191587E-3;-4,581489135E-3;-5,375614017E-2
8,160582459E1;7,635815535E-3;4,581489484E-4;-5,543602258E-2
8,170582458E1;-7,635815535E-3;4,581489135E-3;-5,390885845E-2
8,180582459E1;-6,566801574E-3;1,038470957E-2;-5,513058975E-2
8,190582458E1;-1,206458826E-2;9,773843922E-3;-5,222897977E-2
8,200582458E1;-6,108652335E-3;8,093964309E-3;-5,161811411E-2
8,210582459E1;-1,069014193E-3;7,177666761E-3;-4,886921868E-2
8,220582458E1;3,054326167E-3;1,221730467E-2;-4,917465150E-2
8,230582459E1;-5,650503561E-3;1,282817032E-2;-4,688390717E-2
8,240582458E1;-1,145372353E-2;1,038470957E-2;-4,627304152E-2
8,250582458E1;-1,695151068E-2;1,191187184E-2;-4,535674304E-2
8,260582459E1;-1,374446787E-2;1,038470957E-2;-4,184427112E-2
8,270582458E1;3,054326226E-4;1,282817032E-2;-4,062253982E-2
8,280582459E1;-3,207042580E-3;8,399397135E-3;-3,756821156E-2
8,290582458E1;-1,679879380E-3;1,053742506E-2;-3,665191308E-2
8,300582458E1;-7,177666761E-3;9,315694682E-3;-3,588833287E-2
8,310582459E1;-7,177666761E-3;1,175915636E-2;-3,344487399E-2
8,320582458E1;-4,276056774E-3;1,572977938E-2;-3,237585723E-2
8,330582459E1;-3,817907767E-3;1,496619824E-2;-2,962696366E-2
8,340582458E1;-9,162978968E-4;1,328631863E-2;-2,871066704E-2
8,350582458E1;-5,650503561E-3;4,886921961E-3;-2,687807009E-2
8,360582459E1;-5,650503561E-3;3,512475174E-3;-2,504547499E-2
8,370582458E1;-7,177666761E-3;3,665191587E-3;-2,458732575E-2
8,380582459E1;-5,497787148E-3;8,093964309E-3;-2,290744707E-2
8,390582458E1;-2,443460980E-3;9,315694682E-3;-2,199114859E-2
8,400582458E1;-5,803219974E-3;6,414085161E-3;-1,863138936E-2
8,410582459E1;-4,581489135E-3;5,803219974E-3;-1,664607786E-2
8,420582458E1;-3,207042580E-3;6,872233935E-3;-1,511891466E-2
8,430582459E1;-1,985311974E-3;9,010262787E-3;-1,435533352E-2
8,440582458E1;-2,748893574E-3;1,038470957E-2;-1,221730467E-2
8,450582458E1;-4,734205548E-3;1,069014147E-2;-1,130100712E-2
8,460582459E1;-3,970623948E-3;5,650503561E-3;-9,468411095E-3
8,470582458E1;-6,261368748E-3;3,512475174E-3;-7,635815535E-3
8,480582459E1;-1,985311974E-3;9,162978968E-4;-5,650503561E-3
8,490582458E1;-1,832595794E-3;7,635815418E-4;-4,734205548E-3
8,500582458E1;-4,428773187E-3;6,108652451E-4;-2,138028387E-3
8,510582459E1;-4,428773187E-3;3,359758761E-3;-7,635815418E-4
8,520582458E1;-7,941247895E-3;3,970623948E-3;-0,000000000E0
8,530582459E1;-7,483099122E-3;4,428773187E-3;-1,527163113E-4
8,540582458E1;-1,985311974E-3;8,246680722E-3;0,000000000E0
8,550582458E1;-1,985311974E-3;7,330383174E-3;1,374446787E-3
8,560582459E1;-1,985311974E-3;9,926560335E-3;1,221730490E-3
8,570582458E1;-4,428773187E-3;8,704829961E-3;1,679879380E-3
8,580582459E1;-3,359758761E-3;4,276056774E-3;1,069014193E-3
8,590582458E1;-4,886921961E-3;-6,108652451E-4;1,679879380E-3
8,600582458E1;-6,261368748E-3;-5,955935922E-3;1,374446787E-3
8,610582459E1;-4,734205548E-3;-1,145372353E-2;1,679879380E-3
8,620582458E1;-2,596177394E-3;-9,621127509E-3;1,832595794E-3
8,630582459E1;3,970623948E-3;-1,985311974E-3;-1,374446787E-3
8,640582458E1;-7,635815418E-4;-1,679879380E-3;-1,069014193E-3
8,650582458E1;-8,399397135E-3;-1,374446787E-3;6,108652451E-4
8,660582459E1;-6,719517522E-3;6,108652451E-4;0,000000000E0
8,670582458E1;-3,817907767E-3;-3,054326226E-4;9,162978968E-4
8,680582459E1;7,635815418E-4;4,428773187E-3;-3,054326226E-4
8,690582458E1;6,108652335E-3;6,108652335E-3;-4,581489484E-4
8,700582458E1;9,162978968E-4;5,497787148E-3;1,527163113E-4
8,710582459E1;-3,054326167E-3;8,093964309E-3;-1,374446787E-3
8,720582458E1;-7,330383174E-3;3,054326167E-3;7,635815418E-4
8,730582459E1;1,527163113E-4;-2,443460980E-3;-6,108652451E-4
8,740582458E1;3,970623948E-3;-3,512475174E-3;-4,581489484E-4
8,750582458E1;3,054326167E-3;-3,207042580E-3;-7,635815418E-4
8,760582459E1;1,069014193E-3;-2,901609987E-3;-3,054326226E-4
8,770582458E1;-1,679879380E-3;-1,221730490E-3;1,527163113E-4
8,780582459E1;-1,527163084E-3;-4,581489484E-4;-0,000000000E0
8,790582458E1;-1,374446787E-3;1,069014193E-3;3,054326226E-4
8,800582458E1;2,596177394E-3;4,581489484E-4;-7,635815418E-4
8,810582459E1;7,635815418E-4;-1,527163084E-3;9,162978968E-4
8,820582458E1;9,162978968E-4;-1,985311974E-3;1,527163113E-4
8,830582459E1;-9,162978968E-4;-1,221730490E-3;-1,527163113E-4
8,840582458E1;-2,596177394E-3;-1,221730490E-3;-1,527163113E-4
8,850582458E1;-2,138028387E-3;4,581489484E-4;-1,527163113E-4
8,860582459E1;1,527163113E-4;1,679879380E-3;-3,054326226E-4
8,870582458E1;1,679879380E-3;2,290744567E-3;-1,527163113E-4
8,880582459E1;1,527163113E-4;3,207042580E-3;3,054326226E-4
8,890582458E1;4,581489484E-4;2,901609987E-3;4,581489484E-4
8,900582458E1;-2,290744567E-3;3,512475174E-3;-1,527163113E-4
8,910582459E1;-1,985311974E-3;2,748893574E-3;-9,162978968E-4
8,920582458E1;-1,527163113E-4;0,000000000E0;-4,581489484E-4
8,930582459E1;6,108652451E-4;4,581489484E-4;-7,635815418E-4
8,940582458E1;1,527163084E-3;1,527163113E-4;-7,635815418E-4
8,950582458E1;-1,527163113E-4;-1,069014193E-3;1,527163113E-4
8,960582459E1;9,162978968E-4;-7,635815418E-4;-6,108652451E-4
8,970582458E1;1,527163113E-4;-1,221730490E-3;1,527163113E-4
8,980582459E1;-7,635815418E-4;-3,054326167E-3;3,054326226E-4
8,990582458E1;-3,970623948E-3;-2,290744567E-3;0,000000000E0
9,000582458E1;-1,069014193E-3;-1,374446787E-3;-1,527163113E-4
9,010582459E1;0,000000000E0;4,581489484E-4;-1,069014193E-3
9,020582458E1;9,162978968E-4;3,054326226E-4;-4,581489484E-4
9,030582459E1;2,138028387E-3;1,374446787E-3;-7,635815418E-4
9,040582458E1;-1,069014193E-3;-1,527163084E-3;3,054326226E-4
9,050582458E1;-1,069014193E-3;-1,679879380E-3;0,000000000E0
9,060582459E1;-1,069014193E-3;7,635815418E-4;-1,527163113E-4
9,070582458E1;-1,374446787E-3;-6,108652451E-4;-4,581489484E-4
9,080582459E1;1,832595794E-3;-1,832595794E-3;-1,679879380E-3
9,090582458E1;2,138028387E-3;-2,138028387E-3;-6,108652451E-4
9,100582458E1;1,374446787E-3;-9,162978968E-4;-6,108652451E-4
9,110582459E1;-7,635815418E-4;1,679879380E-3;0,000000000E0
9,120582458E1;-1,679879380E-3;9,162978968E-4;6,108652451E-4
9,130582459E1;-1,985311974E-3;-2,138028387E-3;1,069014193E-3
9,140582458E1;-9,162978968E-4;-1,527163084E-3;4,581489484E-4
9,150582458E1;-9,162978968E-4;-9,162978968E-4;1,527163113E-4
9,160582459E1;-4,581489484E-4;-9,162978968E-4;-3,054326226E-4
9,170582458E1;1,069014193E-3;7,635815418E-4;-7,635815418E-4
9,180582459E1;7,635815418E-4;1,069014193E-3;-6,108652451E-4
9,190582458E1;-7,635815418E-4;-9,162978968E-4;-7,635815418E-4
9,200582458E1;-2,901609987E-3;-1,527163084E-3;-4,581489484E-4
9,210582459E1;-3,054326226E-4;7,635815418E-4;-1,527163113E-4
9,220582458E1;-4,581489484E-4;-1,985311974E-3;4,581489484E-4
9,230582459E1;3,054326167E-3;-3,665191587E-3;4,581489484E-4
9,240582458E1;4,886921961E-3;-3,512475174E-3;-3,054326226E-4
9,250582458E1;-2,443460980E-3;-8,093964309E-3;1,679879380E-3
9,260582459E1;-2,596177394E-3;-3,359758761E-3;4,581489484E-4
9,270582458E1;-4,734205548E-3;1,527163113E-4;4,581489484E-4
9,280582459E1;-1,374446787E-3;2,443460980E-3;0,000000000E0
9,290582458E1;4,581489484E-4;7,635815418E-4;1,527163113E-4
9,300582458E1;2,748893574E-3;6,108652451E-4;-0,000000000E0
9,310582459E1;5,039638374E-3;3,054326226E-4;-0,000000000E0
9,320582458E1;5,039638374E-3;9,162978968E-4;-6,108652451E-4
9,330582459E1;2,901609987E-3;3,207042580E-3;-3,054326226E-4
9,340582458E1;3,054326226E-4;1,679879380E-3;1,527163113E-4
9,350582458E1;1,527163113E-4;-6,108652451E-4;1,527163113E-4
9,360582459E1;3,054326226E-4;-3,054326226E-4;-9,162978968E-4
9,370582458E1;1,832595794E-3;1,221730490E-3;-6,108652451E-4
9,380582459E1;-1,527163113E-4;2,138028387E-3;1,527163113E-4
9,390582458E1;-3,054326226E-4;3,512475174E-3;-1,527163113E-4
9,400582458E1;-1,679879380E-3;3,512475174E-3;4,581489484E-4
9,410582459E1;-3,970623948E-3;3,359758761E-3;9,162978968E-4
9,420582458E1;-3,970623948E-3;1,527163084E-3;3,054326226E-4
9,430582459E1;-5,192354787E-3;-1,832595794E-3;7,635815418E-4
9,440582458E1;-2,290744567E-3;-3,512475174E-3;7,635815418E-4
9,450582458E1;4,581489484E-4;-3,665191587E-3;6,108652451E-4
9,460582459E1;1,527163113E-4;-4,123340361E-3;1,679879380E-3
9,470582458E1;-3,054326226E-4;-5,497787148E-3;2,138028387E-3
9,480582459E1;-2,443460980E-3;-5,039638374E-3;2,596177394E-3
9,490582458E1;-1,069014193E-3;-1,985311974E-3;1,985311974E-3
9,500582458E1;-3,207042580E-3;-4,581489484E-4;2,290744567E-3
9,510582459E1;-2,138028387E-3;2,443460980E-3;1,527163084E-3
9,520582458E1;7,635815418E-4;5,345070735E-3;1,527163084E-3
9,530582459E1;2,443460980E-3;5,345070735E-3;1,832595794E-3
9,540582458E1;3,054326226E-4;7,483099122E-3;1,679879380E-3
9,550582458E1;1,069014193E-3;9,621127509E-3;1,069014193E-3
9,560582459E1;-2,443460980E-3;1,160643995E-2;1,527163084E-3
9,570582458E1;-4,886921961E-3;1,114829071E-2;1,679879380E-3
9,580582459E1;-1,679879380E-3;1,175915636E-2;1,679879380E-3
9,590582458E1;2,596177394E-3;1,267545391E-2;1,527163084E-3
9,600582458E1;4,428773187E-3;1,069014147E-2;2,901609987E-3
9,610582459E1;2,443460980E-3;9,010262787E-3;3,817907767E-3
9,620582458E1;1,527163084E-3;9,773843922E-3;3,359758761E-3
9,630582459E1;-3,054326226E-4;1,328631863E-2;2,138028387E-3
9,640582458E1;-1,527163084E-3;1,191187184E-2;2,290744567E-3
9,650582458E1;1,527163084E-3;7,635815535E-3;2,443460980E-3
9,660582459E1;1,832595794E-3;4,581489135E-3;3,512475174E-3
9,670582458E1;-1,527163113E-4;1,069014193E-3;4,276056774E-3
9,680582459E1;9,162978968E-4;2,443460980E-3;4,581489135E-3
9,690582458E1;-6,108652451E-4;4,123340361E-3;5,192354787E-3
9,700582458E1;-1,832595794E-3;2,901609987E-3;5,650503561E-3
9,710582459E1;-1,374446787E-3;4,581489484E-4;4,734205548E-3
9,720582458E1;-6,108652451E-4;-4,581489484E-4;5,192354787E-3
9,730582459E1;4,581489484E-4;-7,635815418E-4;4,886921961E-3
9,740582458E1;4,581489484E-4;-7,635815418E-4;4,581489135E-3
9,750582458E1;7,635815418E-4;6,108652451E-4;4,428773187E-3
9,760582459E1;-9,162978968E-4;9,162978968E-4;4,734205548E-3
9,770582458E1;-9,162978968E-4;2,138028387E-3;3,970623948E-3
9,780582459E1;-1,069014193E-3;1,832595794E-3;4,123340361E-3
9,790582458E1;-3,054326226E-4;1,527163084E-3;3,817907767E-3
9,800582458E1;7,635815418E-4;4,581489484E-4;3,817907767E-3
9,810582459E1;7,635815418E-4;1,527163084E-3;4,886921961E-3
9,820582458E1;1,679879380E-3;2,290744567E-3;4,581489135E-3
9,830582459E1;1,985311974E-3;4,734205548E-3;2,901609987E-3
9,840582458E1;-1,527163084E-3;-1,221730490E-3;5,039638374E-3
9,850582458E1;-3,665191587E-3;-3,054326226E-4;4,276056774E-3
9,860582459E1;-7,635815418E-4;3,054326167E-3;3,512475174E-3
9,870582458E1;7,635815418E-4;4,276056774E-3;3,817907767E-3
9,880582459E1;3,970623948E-3;5,039638374E-3;2,901609987E-3
9,890582458E1;2,901609987E-3;1,221730490E-3;2,290744567E-3
9,900582458E1;1,527163113E-4;-3,970623948E-3;3,817907767E-3
9,910582459E1;-1,527163084E-3;-3,665191587E-3;4,428773187E-3
9,920582458E1;-6,108652451E-4;-2,138028387E-3;5,497787148E-3
9,930582459E1;7,635815418E-4;-2,138028387E-3;4,428773187E-3
9,940582458E1;1,679879380E-3;-2,748893574E-3;3,970623948E-3
9,950582458E1;1,527163113E-4;-3,970623948E-3;4,581489135E-3
9,960582459E1;1,527163113E-4;-6,108652451E-4;3,207042580E-3
9,970582458E1;-2,290744567E-3;7,635815418E-4;4,428773187E-3
9,980582459E1;-2,138028387E-3;3,817907767E-3;4,734205548E-3
9,990582458E1;-1,527163084E-3;3,665191587E-3;4,428773187E-3
1,000058246E2;1,221730490E-3;1,527163084E-3;4,428773187E-3
1,001058246E2;7,635815418E-4;1,679879380E-3;4,123340361E-3
1,002058246E2;3,054326226E-4;1,679879380E-3;4,123340361E-3
1,003058246E2;7,635815418E-4;2,443460980E-3;3,817907767E-3
1,004058246E2;-3,207042580E-3;1,374446787E-3;3,970623948E-3
1,005058246E2;-1,221730490E-3;2,596177394E-3;3,970623948E-3
1,006058246E2;-4,581489484E-4;2,443460980E-3;3,970623948E-3
1,007058246E2;-4,581489484E-4;1,527163084E-3;3,665191587E-3
1,008058246E2;1,679879380E-3;1,985311974E-3;3,512475174E-3
1,009058246E2;-6,108652451E-4;-3,054326226E-4;4,581489135E-3
1,010058246E2;1,527163113E-4;-9,162978968E-4;4,734205548E-3
1,011058246E2;-1,374446787E-3;-2,290744567E-3;4,886921961E-3
1,012058246E2;-1,221730490E-3;-1,221730490E-3;3,970623948E-3
1,013058246E2;-7,635815418E-4;-1,832595794E-3;4,276056774E-3
1,014058246E2;9,162978968E-4;-3,054326226E-4;3,512475174E-3
1,015058246E2;2,290744567E-3;-6,108652451E-4;3,512475174E-3
1,016058246E2;0,000000000E0;-1,985311974E-3;4,276056774E-3
1,017058246E2;1,221730490E-3;-1,985311974E-3;4,734205548E-3
1,018058246E2;-4,581489484E-4;-2,596177394E-3;4,734205548E-3
1,019058246E2;-1,527163113E-4;-1,985311974E-3;4,886921961E-3
1,020058246E2;-2,748893574E-3;-1,374446787E-3;4,428773187E-3
1,021058246E2;4,581489484E-4;3,665191587E-3;3,359758761E-3
1,022058246E2;1,527163084E-3;5,039638374E-3;2,443460980E-3
1,023058246E2;7,635815418E-4;4,581489484E-4;4,123340361E-3
1,024058246E2;1,832595794E-3;-1,527163084E-3;3,970623948E-3
1,025058246E2;-4,886921961E-3;-5,955935922E-3;6,261368748E-3
1,026058246E2;-3,512475174E-3;-5,803219974E-3;6,872233935E-3
1,027058246E2;-7,635815418E-4;-1,527163113E-4;4,734205548E-3
1,028058246E2;2,138028387E-3;3,359758761E-3;3,665191587E-3
1,029058246E2;0,000000000E0;1,832595794E-3;3,512475174E-3
1,030058246E2;-6,108652451E-4;4,581489484E-4;4,276056774E-3
1,031058246E2;-2,596177394E-3;-1,221730490E-3;5,345070735E-3
1,032058246E2;6,108652451E-4;6,108652451E-4;5,192354787E-3
1,033058246E2;7,635815418E-4;-1,527163113E-4;4,886921961E-3
1,034058246E2;4,734205548E-3;-1,527163084E-3;3,817907767E-3
1,035058246E2;2,901609987E-3;-9,162978968E-4;3,970623948E-3
1,036058246E2;-6,872233935E-3;2,443460980E-3;5,955935922E-3
1,037058246E2;-5,955935922E-3;4,581489135E-3;6,108652335E-3
1,038058246E2;-4,581489135E-3;3,665191587E-3;6,414085161E-3
1,039058246E2;1,832595794E-3;5,803219974E-3;4,734205548E-3
1,040058246E2;-6,108652451E-4;2,596177394E-3;4,581489135E-3
1,041058246E2;2,901609987E-3;3,054326167E-3;3,970623948E-3
1,042058246E2;-6,108652451E-4;6,108652451E-4;5,345070735E-3
1,043058246E2;5,039638374E-3;7,330383174E-3;2,901609987E-3
1,044058246E2;5,039638374E-3;3,970623948E-3;3,207042580E-3
1,045058246E2;5,497787148E-3;1,985311974E-3;3,054326167E-3
1,046058246E2;-4,428773187E-3;-5,039638374E-3;5,345070735E-3
1,047058246E2;-9,773843922E-3;-3,512475174E-3;6,108652335E-3
1,048058246E2;4,581489484E-4;3,054326167E-3;3,054326167E-3
1,049058246E2;2,290744567E-3;3,970623948E-3;3,054326167E-3
1,050058246E2;4,428773187E-3;1,221730490E-3;3,207042580E-3
1,051058246E2;6,414085161E-3;2,901609987E-3;1,985311974E-3
1,052058246E2;-1,527163113E-4;-2,748893574E-3;3,512475174E-3
1,053058246E2;-5,192354787E-3;-7,483099122E-3;5,039638374E-3
1,054058246E2;-1,527163113E-4;-9,773843922E-3;6,719517522E-3
1,055058246E2;1,527163113E-4;-7,788531948E-3;6,872233935E-3
1,056058246E2;3,359758761E-3;-2,443460980E-3;5,803219974E-3
1,057058246E2;9,162978968E-4;1,374446787E-3;4,428773187E-3
1,058058246E2;-0,000000000E0;5,497787148E-3;4,886921961E-3
1,059058246E2;-1,527163113E-4;4,581489135E-3;4,276056774E-3
1,060058246E2;6,108652451E-4;3,970623948E-3;4,581489135E-3
1,061058246E2;2,290744567E-3;9,162978968E-4;5,192354787E-3
1,062058246E2;3,359758761E-3;4,581489484E-4;4,734205548E-3
1,063058246E2;1,985311974E-3;-2,290744567E-3;4,734205548E-3
1,064058246E2;1,374446787E-3;-1,069014193E-3;3,817907767E-3
1,065058246E2;-3,359758761E-3;3,054326226E-4;4,276056774E-3
1,066058246E2;-3,359758761E-3;0,000000000E0;5,345070735E-3
1,067058246E2;-7,635815418E-4;6,566801574E-3;4,276056774E-3
1,068058246E2;-1,221730490E-3;6,719517522E-3;5,345070735E-3
1,069058246E2;2,596177394E-3;5,039638374E-3;5,497787148E-3
1,070058246E2;1,374446787E-3;7,635815418E-4;5,803219974E-3
1,071058246E2;-7,635815418E-4;1,527163113E-4;4,581489135E-3
1,072058246E2;-1,221730490E-3;-9,162978968E-4;4,886921961E-3
1,073058246E2;-3,817907767E-3;-2,596177394E-3;4,581489135E-3
1,074058246E2;-3,054326226E-4;-4,581489484E-4;3,207042580E-3
1,075058246E2;1,679879380E-3;-3,054326167E-3;3,970623948E-3
1,076058246E2;4,428773187E-3;-3,512475174E-3;4,276056774E-3
1,077058246E2;3,054326226E-4;-2,290744567E-3;5,039638374E-3
1,078058246E2;-9,162978968E-4;-1,221730490E-3;5,192354787E-3
1,079058246E2;-4,123340361E-3;-6,108652451E-4;5,192354787E-3
1,080058246E2;-2,901609987E-3;0,000000000E0;4,886921961E-3
1,081058246E2;-1,374446787E-3;2,748893574E-3;3,665191587E-3
1,082058246E2;-9,162978968E-4;3,207042580E-3;3,665191587E-3
1,083058246E2;-3,817907767E-3;4,123340361E-3;4,581489135E-3
1,084058246E2;-3,054326167E-3;1,374446787E-3;4,886921961E-3
1,085058246E2;-2,138028387E-3;1,527163113E-4;4,581489135E-3
1,086058246E2;-6,108652451E-4;-2,138028387E-3;4,581489135E-3
1,087058246E2;-1,832595794E-3;-1,985311974E-3;5,039638374E-3
1,088058246E2;-2,290744567E-3;-1,527163113E-4;4,734205548E-3
1,089058246E2;-3,054326167E-3;1,221730490E-3;4,734205548E-3
1,090058246E2;-1,374446787E-3;3,207042580E-3;4,276056774E-3
1,091058246E2;-1,374446787E-3;2,290744567E-3;5,039638374E-3
1,092058246E2;-7,635815418E-4;3,512475174E-3;5,039638374E-3
1,093058246E2;-3,665191587E-3;9,162978968E-4;5,955935922E-3
1,094058246E2;-3,054326167E-3;-3,054326226E-4;5,192354787E-3
1,095058246E2;-4,581489135E-3;-2,290744567E-3;5,650503561E-3
1,096058246E2;-3,054326167E-3;-1,374446787E-3;4,581489135E-3
1,097058246E2;-2,443460980E-3;3,054326226E-4;3,817907767E-3
1,098058246E2;-1,527163084E-3;3,054326167E-3;3,207042580E-3
1,099058246E2;-4,581489484E-4;5,345070735E-3;3,054326167E-3
1,100058246E2;-1,221730490E-3;4,581489135E-3;3,665191587E-3
1,101058246E2;-2,748893574E-3;3,054326167E-3;4,428773187E-3
1,102058246E2;-1,832595794E-3;0,000000000E0;5,497787148E-3
1,103058246E2;-2,290744567E-3;-1,679879380E-3;5,039638374E-3
1,104058246E2;-1,527163084E-3;-1,069014193E-3;4,276056774E-3
1,105058246E2;7,635815418E-4;-7,635815418E-4;3,817907767E-3
1,106058246E2;-4,581489484E-4;1,374446787E-3;2,901609987E-3
1,107058246E2;-2,748893574E-3;7,635815418E-4;3,665191587E-3
1,108058246E2;-1,679879380E-3;-1,527163113E-4;3,970623948E-3
1,109058246E2;-2,596177394E-3;-3,207042580E-3;4,886921961E-3
1,110058246E2;-2,596177394E-3;-4,886921961E-3;4,886921961E-3
1,111058246E2;7,635815418E-4;-6,872233935E-3;5,039638374E-3
1,112058246E2;3,817907767E-3;-5,497787148E-3;3,970623948E-3
1,113058246E2;1,374446787E-3;-4,734205548E-3;5,345070735E-3
1,114058246E2;-1,007927675E-2;-5,039638374E-3;6,566801574E-3
1,115058246E2;1,527163113E-4;-7,635815418E-4;5,192354787E-3
1,116058246E2;-3,512475174E-3;1,069014193E-3;5,039638374E-3
1,117058246E2;1,374446787E-3;6,566801574E-3;3,512475174E-3
1,118058246E2;-6,108652451E-4;7,024950348E-3;3,665191587E-3
1,119058246E2;-3,359758761E-3;3,054326167E-3;3,970623948E-3
1,120058246E2;-3,359758761E-3;-3,054326226E-4;5,345070735E-3
1,121058246E2;-5,039638374E-3;-1,527163084E-3;4,734205548E-3
1,122058246E2;-3,817907767E-3;-1,679879380E-3;4,581489135E-3
1,123058246E2;9,162978968E-4;-1,374446787E-3;4,123340361E-3
1,124058246E2;-3,970623948E-3;-3,512475174E-3;4,428773187E-3
1,125058246E2;-1,527163084E-3;-6,261368748E-3;5,345070735E-3
1,126058246E2;-3,665191587E-3;-6,872233935E-3;6,719517522E-3
1,127058246E2;-1,679879380E-3;-1,069014193E-3;6,566801574E-3
1,128058246E2;4,581489484E-4;2,138028387E-3;5,803219974E-3
1,129058246E2;2,748893574E-3;3,970623948E-3;4,276056774E-3
1,130058246E2;2,138028387E-3;6,108652451E-4;4,428773187E-3
1,131058246E2;1,374446787E-3;-1,527163084E-3;4,734205548E-3
1,132058246E2;1,832595794E-3;-1,985311974E-3;4,734205548E-3
1,133058246E2;2,748893574E-3;-3,207042580E-3;5,039638374E-3
1,134058246E2;3,970623948E-3;-7,635815418E-4;4,123340361E-3
1,135058246E2;1,527163084E-3;-4,581489484E-4;3,665191587E-3
1,136058246E2;3,054326167E-3;3,665191587E-3;3,817907767E-3
1,137058246E2;3,665191587E-3;3,512475174E-3;3,817907767E-3
1,138058246E2;5,497787148E-3;1,527163084E-3;5,039638374E-3
1,139058246E2;1,832595794E-3;-1,527163113E-4;4,734205548E-3
1,140058246E2;4,886921961E-3;-1,069014193E-3;3,817907767E-3
1,141058246E2;3,665191587E-3;-2,138028387E-3;4,276056774E-3
1,142058246E2;3,817907767E-3;-3,054326167E-3;1,985311974E-3
1,143058246E2;1,679879380E-3;-6,566801574E-3;2,901609987E-3
1,144058246E2;3,054326167E-3;-9,162978269E-3;2,748893574E-3
1,145058246E2;3,512475174E-3;-1,069014147E-2;1,832595794E-3
1,146058246E2;4,428773187E-3;-1,466076635E-2;2,290744567E-3
1,147058246E2;2,443460980E-3;-1,404990070E-2;9,162978968E-4
1,148058246E2;3,207042580E-3;-1,435533352E-2;7,635815418E-4
1,149058246E2;1,527163084E-3;-1,466076635E-2;1,221730490E-3
1,150058246E2;6,108652451E-4;-1,221730467E-2;7,635815418E-4
1,151058246E2;-7,635815418E-4;-1,038470957E-2;1,679879380E-3
1,152058246E2;-3,054326226E-4;-7,024950348E-3;6,108652451E-4
1,153058246E2;4,123340361E-3;-3,817907767E-3;-9,162978968E-4
1,154058246E2;2,138028387E-3;-4,123340361E-3;-1,527163113E-4
1,155058246E2;5,955935922E-3;-1,527163084E-3;-1,832595794E-3
1,156058246E2;3,817907767E-3;-1,832595794E-3;-1,221730490E-3
1,157058246E2;1,527163084E-3;-4,581489484E-4;-6,108652451E-4
1,158058246E2;1,832595794E-3;-1,221730490E-3;-1,527163113E-4
1,159058246E2;2,138028387E-3;-3,054326226E-4;9,162978968E-4
1,160058246E2;9,162978968E-4;6,108652451E-4;6,108652451E-4
1,161058246E2;1,985311974E-3;-2,138028387E-3;7,635815418E-4
1,162058246E2;1,221730490E-3;-1,374446787E-3;6,108652451E-4
1,163058246E2;-1,527163113E-4;-2,290744567E-3;4,581489484E-4
1,164058246E2;-1,069014193E-3;-5,192354787E-3;1,374446787E-3
1,165058246E2;-2,290744567E-3;-8,093964309E-3;1,527163084E-3
1,166058246E2;-2,901609987E-3;-8,399397135E-3;2,596177394E-3
1,167058246E2;3,054326167E-3;-3,054326167E-3;1,374446787E-3
1,168058246E2;3,665191587E-3;-0,000000000E0;6,108652451E-4
1,169058246E2;8,093964309E-3;5,039638374E-3;-1,374446787E-3
1,170058246E2;3,817907767E-3;3,054326167E-3;-6,108652451E-4
1,171058246E2;-7,635815418E-4;-1,832595794E-3;9,162978968E-4
1,172058246E2;-1,527163113E-4;-1,832595794E-3;6,108652451E-4
1,173058246E2;1,985311974E-3;-1,221730490E-3;0,000000000E0
1,174058246E2;3,512475174E-3;-3,054326226E-4;-1,527163113E-4
1,175058246E2;1,007927675E-2;6,566801574E-3;-1,221730490E-3
1,176058246E2;5,803219974E-3;6,261368748E-3;-1,069014193E-3
1,177058246E2;1,069014193E-3;5,345070735E-3;1,069014193E-3
1,178058246E2;-2,138028387E-3;6,872233935E-3;6,108652451E-4
1,179058246E2;-9,162978968E-4;3,207042580E-3;7,635815418E-4
1,180058246E2;-4,581489484E-4;1,527163084E-3;0,000000000E0
1,181058246E2;3,054326226E-4;-0,000000000E0;-3,054326226E-4
1,182058246E2;-3,207042580E-3;-6,108652451E-4;-1,527163113E-4
1,183058246E2;-5,345070735E-3;2,443460980E-3;-4,581489484E-4
1,184058246E2;-1,527163113E-4;1,374446787E-3;7,635815418E-4
1,185058246E2;1,527163113E-4;1,527163113E-4;1,374446787E-3
1,186058246E2;7,483099122E-3;1,985311974E-3;3,054326226E-4
1,187058246E2;6,108652335E-3;9,162978968E-4;6,108652451E-4
1,188058246E2;3,817907767E-3;4,886921961E-3;-1,069014193E-3
1,189058246E2;3,970623948E-3;3,970623948E-3;-4,581489484E-4
1,190058246E2;3,054326226E-4;1,069014193E-3;-1,527163113E-4
1,191058246E2;1,069014193E-3;9,162978968E-4;-1,069014193E-3
1,192058246E2;2,138028387E-3;1,679879380E-3;-1,832595794E-3
1,193058246E2;3,359758761E-3;3,665191587E-3;-2,901609987E-3
1,194058246E2;1,527163113E-4;2,901609987E-3;-1,221730490E-3
1,195058246E2;4,581489484E-4;3,665191587E-3;-6,108652451E-4
1,196058246E2;1,527163113E-4;1,679879380E-3;1,527163113E-4
1,197058246E2;-1,069014193E-3;2,443460980E-3;0,000000000E0
1,198058246E2;-2,748893574E-3;-3,970623948E-3;1,221730490E-3
1,199058246E2;-4,581489484E-4;-3,054326167E-3;9,162978968E-4
1,200058246E2;-4,581489484E-4;-4,276056774E-3;9,162978968E-4
1,201058246E2;1,374446787E-3;-2,596177394E-3;-1,527163113E-4
1,202058246E2;-7,635815418E-4;-2,901609987E-3;1,527163113E-4
1,203058246E2;9,162978968E-4;-2,443460980E-3;-1,527163113E-4
1,204058246E2;6,108652451E-4;-2,290744567E-3;3,054326226E-4
1,205058246E2;-1,527163084E-3;-1,985311974E-3;-0,000000000E0
1,206058246E2;1,527163113E-4;-6,108652451E-4;1,527163113E-4
1,207058246E2;-1,374446787E-3;7,635815418E-4;7,635815418E-4
1,208058246E2;6,108652451E-4;1,374446787E-3;0,000000000E0
1,209058246E2;3,970623948E-3;3,970623948E-3;-4,581489484E-4
1,210058246E2;5,497787148E-3;5,192354787E-3;-9,162978968E-4
1,211058246E2;4,276056774E-3;5,955935922E-3;-6,108652451E-4
1,212058246E2;2,596177394E-3;3,817907767E-3;-1,374446787E-3
1,213058246E2;1,832595794E-3;3,054326167E-3;-1,374446787E-3
1,214058246E2;-3,054326226E-4;0,000000000E0;-1,069014193E-3
1,215058246E2;-2,138028387E-3;-3,207042580E-3;0,000000000E0
1,216058246E2;-1,832595794E-3;-4,123340361E-3;-3,054326226E-4
1,217058246E2;2,443460980E-3;-1,527163113E-4;-1,679879380E-3
1,218058246E2;3,512475174E-3;1,069014193E-3;-1,832595794E-3
1,219058246E2;-8,093964309E-3;-6,414085161E-3;1,832595794E-3
1,220058246E2;-1,069014147E-2;-8,552113548E-3;2,443460980E-3
1,221058246E2;-6,566801574E-3;-8,399397135E-3;2,443460980E-3
1,222058246E2;-7,635815418E-4;-5,345070735E-3;7,635815418E-4
1,223058246E2;6,566801574E-3;-3,054326167E-3;3,054326226E-4
1,224058246E2;5,650503561E-3;-6,108652451E-4;-7,635815418E-4
1,225058246E2;-1,221730490E-3;5,039638374E-3;-6,108652451E-4
1,226058246E2;1,527163113E-4;6,414085161E-3;-6,108652451E-4
1,227058246E2;3,970623948E-3;9,773843922E-3;-1,679879380E-3
1,228058246E2;-1,679879380E-3;4,581489135E-3;-3,054326226E-4
1,229058246E2;7,635815418E-4;6,872233935E-3;-1,985311974E-3
1,230058246E2;-9,162978968E-4;3,054326167E-3;-6,108652451E-4
1,231058246E2;1,374446787E-3;4,734205548E-3;-1,679879380E-3
1,232058246E2;3,054326226E-4;3,054326167E-3;0,000000000E0
1,233058246E2;0,000000000E0;3,970623948E-3;0,000000000E0
1,234058246E2;-1,527163084E-3;-1,374446787E-3;1,832595794E-3
1,235058246E2;1,527163084E-3;-3,665191587E-3;1,374446787E-3
1,236058246E2;-2,290744567E-3;-9,315694682E-3;2,443460980E-3
1,237058246E2;-9,162978968E-4;-1,069014147E-2;1,985311974E-3
1,238058246E2;-3,359758761E-3;-7,483099122E-3;7,635815418E-4
1,239058246E2;-3,359758761E-3;-7,024950348E-3;3,054326226E-4
1,240058246E2;3,054326167E-3;-0,000000000E0;-1,527163084E-3
1,241058246E2;1,832595794E-3;-1,832595794E-3;-4,581489484E-4
1,242058246E2;1,527163113E-4;-1,527163113E-4;-6,108652451E-4
1,243058246E2;0,000000000E0;-1,527163084E-3;-7,635815418E-4
1,244058246E2;-1,832595794E-3;-1,985311974E-3;6,108652451E-4
1,245058246E2;-1,985311974E-3;-3,054326226E-4;4,581489484E-4
1,246058246E2;1,221730490E-3;6,108652335E-3;-1,069014193E-3
1,247058246E2;-3,054326167E-3;4,276056774E-3;6,108652451E-4
1,248058246E2;3,359758761E-3;9,621127509E-3;-7,635815418E-4
1,249058246E2;3,207042580E-3;8,093964309E-3;-4,581489484E-4
1,250058246E2;2,443460980E-3;5,497787148E-3;-0,000000000E0
1,251058246E2;2,748893574E-3;5,039638374E-3;-3,054326226E-4
1,252058246E2;-3,512475174E-3;-6,108652451E-4;-3,054326226E-4
1,253058246E2;-3,207042580E-3;-2,138028387E-3;0,000000000E0
1,254058246E2;-3,054326167E-3;-3,359758761E-3;-3,054326226E-4
1,255058246E2;1,527163113E-4;-2,748893574E-3;-7,635815418E-4
1,256058246E2;3,817907767E-3;-1,679879380E-3;-2,138028387E-3
1,257058246E2;1,221730490E-3;-5,650503561E-3;-1,374446787E-3
1,258058246E2;3,359758761E-3;-2,748893574E-3;-2,596177394E-3
1,259058246E2;-2,138028387E-3;-1,206458826E-2;-0,000000000E0
1,260058246E2;-3,207042580E-3;-1,389718428E-2;-1,527163113E-4
1,261058246E2;-1,374446787E-3;-1,389718428E-2;7,635815418E-4
1,262058246E2;3,054326167E-3;-1,038470957E-2;-0,000000000E0
1,263058246E2;-3,512475174E-3;-1,313360315E-2;4,276056774E-3
1,264058246E2;-3,512475174E-3;-7,635815535E-3;2,443460980E-3
1,265058246E2;-3,817907767E-3;-3,054326167E-3;2,596177394E-3
1,266058246E2;-1,985311974E-3;1,527163084E-3;1,221730490E-3
1,267058246E2;4,428773187E-3;4,581489135E-3;9,162978968E-4
1,268058246E2;5,345070735E-3;7,788531948E-3;-4,581489484E-4
1,269058246E2;0,000000000E0;1,145372353E-2;-9,162978968E-4
1,270058246E2;-3,512475174E-3;1,191187184E-2;-4,581489484E-4
1,271058246E2;1,679879380E-3;1,511891466E-2;-1,985311974E-3
1,272058246E2;1,374446787E-3;1,359175146E-2;-1,832595794E-3
1,273058246E2;-1,527163084E-3;9,468411095E-3;3,054326226E-4
1,274058246E2;-3,207042580E-3;7,330383174E-3;1,374446787E-3
1,275058246E2;-2,901609987E-3;8,857546374E-3;-1,527163113E-4
1,276058246E2;-7,635815418E-4;7,788531948E-3;3,054326226E-4
1,277058246E2;3,970623948E-3;5,345070735E-3;-1,527163113E-4
1,278058246E2;4,734205548E-3;5,039638374E-3;-3,054326226E-4
1,279058246E2;-6,108652451E-4;-1,527163113E-4;-3,054326226E-4
1,280058246E2;1,069014193E-3;-2,290744567E-3;-1,221730490E-3
1,281058246E2;-3,359758761E-3;-1,114829071E-2;-3,054326226E-4
1,282058246E2;-7,635815418E-4;-8,704829961E-3;-1,527163084E-3
1,283058246E2;-2,748893574E-3;-9,010262787E-3;-3,054326226E-4
1,284058246E2;-7,635815418E-4;-5,650503561E-3;-6,108652451E-4
1,285058246E2;9,162978968E-4;-3,054326167E-3;-1,527163113E-4
1,286058246E2;7,635815418E-4;-2,901609987E-3;3,054326226E-4
1,287058246E2;7,635815418E-4;-1,679879380E-3;-0,000000000E0
1,288058246E2;4,581489484E-4;-1,069014193E-3;6,108652451E-4
1,289058246E2;-0,000000000E0;3,054326226E-4;3,054326226E-4
1,290058246E2;-6,108652451E-4;4,276056774E-3;-1,527163113E-4
1,291058246E2;-1,527163113E-4;4,581489135E-3;-3,054326226E-4
1,292058246E2;4,581489484E-4;5,955935922E-3;-4,581489484E-4
1,293058246E2;1,679879380E-3;5,497787148E-3;-4,581489484E-4
1,294058246E2;-3,054326226E-4;3,970623948E-3;6,108652451E-4
1,295058246E2;2,748893574E-3;5,650503561E-3;1,527163113E-4
1,296058246E2;7,635815418E-4;4,123340361E-3;3,054326226E-4
1,297058246E2;-4,734205548E-3;3,512475174E-3;3,054326226E-4
1,298058246E2;-3,054326226E-4;-3,054326226E-4;6,108652451E-4
1,299058246E2;1,527163084E-3;-3,054326226E-4;6,108652451E-4
1,300058246E2;-2,290744567E-3;-2,443460980E-3;3,054326226E-4
1,301058246E2;1,527163084E-3;-1,985311974E-3;-3,054326226E-4
1,302058246E2;-1,527163084E-3;-3,970623948E-3;3,054326226E-4
1,303058246E2;1,221730490E-3;-2,748893574E-3;-7,635815418E-4
1,304058246E2;-2,138028387E-3;-6,108652335E-3;7,635815418E-4
1,305058246E2;1,221730490E-3;-5,650503561E-3;4,581489484E-4
1,306058246E2;-5,039638374E-3;-5,497787148E-3;1,527163084E-3
1,307058246E2;1,527163113E-4;-1,069014193E-3;3,054326226E-4
1,308058246E2;-3,054326226E-4;-3,054326226E-4;6,108652451E-4
1,309058246E2;1,985311974E-3;7,635815418E-4;6,108652451E-4
1,310058246E2;1,679879380E-3;-0,000000000E0;6,108652451E-4
1,311058246E2;-9,162978968E-4;1,221730490E-3;9,162978968E-4
1,312058246E2;1,069014193E-3;3,817907767E-3;6,108652451E-4
1,313058246E2;7,635815418E-4;4,581489135E-3;7,635815418E-4
1,314058246E2;2,138028387E-3;6,566801574E-3;1,527163113E-4
1,315058246E2;3,054326226E-4;5,803219974E-3;3,054326226E-4
1,316058246E2;-7,635815418E-4;5,192354787E-3;9,162978968E-4
1,317058246E2;4,581489484E-4;3,207042580E-3;7,635815418E-4
1,318058246E2;6,108652451E-4;1,985311974E-3;7,635815418E-4
1,319058246E2;6,108652451E-4;1,221730490E-3;7,635815418E-4
1,320058246E2;1,374446787E-3;1,832595794E-3;7,635815418E-4
1,321058246E2;1,527163084E-3;1,374446787E-3;-1,527163113E-4
1,322058246E2;4,581489484E-4;1,221730490E-3;3,054326226E-4
1,323058246E2;-1,527163084E-3;-2,901609987E-3;1,069014193E-3
1,324058246E2;3,054326226E-4;-1,679879380E-3;1,527163113E-4
1,325058246E2;-9,162978968E-4;-3,054326167E-3;0,000000000E0
1,326058246E2;1,527163113E-4;-3,665191587E-3;4,581489484E-4
1,327058246E2;-1,069014193E-3;-1,374446787E-3;1,527163113E-4
1,328058246E2;-1,221730490E-3;1,527163113E-4;4,581489484E-4
1,329058246E2;-7,635815418E-4;1,221730490E-3;1,527163113E-4
1,330058246E2;-7,635815418E-4;1,527163084E-3;4,581489484E-4
1,331058246E2;-9,162978968E-4;3,054326226E-4;6,108652451E-4
1,332058246E2;-7,635815418E-4;6,108652451E-4;9,162978968E-4
1,333058246E2;-3,054326226E-4;1,069014193E-3;4,581489484E-4
1,334058246E2;-4,581489484E-4;3,207042580E-3;3,054326226E-4
1,335058246E2;-7,635815418E-4;3,512475174E-3;0,000000000E0
1,336058246E2;-1,527163084E-3;3,665191587E-3;-0,000000000E0
1,337058246E2;1,832595794E-3;4,123340361E-3;-3,054326226E-4
1,338058246E2;-1,221730490E-3;2,138028387E-3;-4,581489484E-4
1,339058246E2;-3,054326226E-4;-1,527163113E-4;7,635815418E-4
1,340058246E2;-1,679879380E-3;3,054326226E-4;1,527163113E-4
1,341058246E2;-4,581489484E-4;-1,221730490E-3;9,162978968E-4
1,342058246E2;-1,527163084E-3;-2,138028387E-3;7,635815418E-4
1,343058246E2;1,527163113E-4;-1,527163084E-3;6,108652451E-4
1,344058246E2;-1,374446787E-3;-1,679879380E-3;4,581489484E-4
1,345058246E2;-1,527163084E-3;-2,138028387E-3;9,162978968E-4
1,346058246E2;-3,207042580E-3;-9,162978968E-4;1,527163113E-4
1,347058246E2;-3,970623948E-3;-3,054326167E-3;7,635815418E-4
1,348058246E2;-1,527163113E-4;-3,054326226E-4;3,054326226E-4
1,349058246E2;1,527163113E-4;6,108652451E-4;3,054326226E-4
1,350058246E2;-3,054326226E-4;2,443460980E-3;-1,527163113E-4
1,351058246E2;-3,359758761E-3;2,748893574E-3;3,054326226E-4
1,352058246E2;-3,512475174E-3;1,985311974E-3;3,054326226E-4
1,353058246E2;-2,443460980E-3;1,832595794E-3;6,108652451E-4
1,354058246E2;-6,108652451E-4;1,374446787E-3;7,635815418E-4
1,355058246E2;-1,221730490E-3;1,527163084E-3;6,108652451E-4
1,356058246E2;-1,069014193E-3;3,665191587E-3;1,527163113E-4
1,357058246E2;-3,054326226E-4;2,596177394E-3;9,162978968E-4
1,358058246E2;9,162978968E-4;1,527163084E-3;6,108652451E-4
1,359058246E2;-2,443460980E-3;-3,054326167E-3;1,679879380E-3
1,360058246E2;-2,748893574E-3;-3,970623948E-3;1,985311974E-3
1,361058246E2;-2,748893574E-3;-3,207042580E-3;1,679879380E-3
1,362058246E2;-2,290744567E-3;-1,679879380E-3;1,374446787E-3
1,363058246E2;0,000000000E0;-1,527163113E-4;1,069014193E-3
1,364058246E2;-1,985311974E-3;-1,374446787E-3;9,162978968E-4
1,365058246E2;-1,985311974E-3;3,054326226E-4;1,221730490E-3
1,366058246E2;-2,290744567E-3;7,635815418E-4;1,069014193E-3
1,367058246E2;4,581489484E-4;1,069014193E-3;1,527163113E-4
1,368058246E2;-1,985311974E-3;1,679879380E-3;3,054326226E-4
1,369058246E2;-3,054326167E-3;3,207042580E-3;-1,527163113E-4
1,370058246E2;-2,138028387E-3;3,970623948E-3;-0,000000000E0
1,371058246E2;2,443460980E-3;5,192354787E-3;-6,108652451E-4
1,372058246E2;2,138028387E-3;5,192354787E-3;-9,162978968E-4
1,373058246E2;1,679879380E-3;5,650503561E-3;-1,374446787E-3
1,374058246E2;-1,069014193E-3;4,886921961E-3;-6,108652451E-4
1,375058246E2;-2,596177394E-3;1,527163084E-3;-4,581489484E-4
1,376058246E2;-5,650503561E-3;-1,069014193E-3;1,527163113E-4
1,377058246E2;-4,428773187E-3;-5,955935922E-3;1,069014193E-3
1,378058246E2;-3,512475174E-3;-7,330383174E-3;1,679879380E-3
1,379058246E2;-3,665191587E-3;-1,038470957E-2;2,596177394E-3
1,380058246E2;-1,130100712E-2;-1,191187184E-2;4,276056774E-3
1,381058246E2;-3,054326167E-3;-5,039638374E-3;2,443460980E-3
1,382058246E2;2,748893574E-3;-1,679879380E-3;1,527163084E-3
1,383058246E2;4,276056774E-3;3,054326226E-4;1,527163113E-4
1,384058246E2;5,039638374E-3;2,901609987E-3;-7,635815418E-4
1,385058246E2;3,207042580E-3;4,581489135E-3;-6,108652451E-4
1,386058246E2;4,276056774E-3;7,024950348E-3;-9,162978968E-4
1,387058246E2;4,123340361E-3;8,399397135E-3;-1,069014193E-3
1,388058246E2;-2,443460980E-3;7,024950348E-3;-4,581489484E-4
1,389058246E2;-1,069014193E-3;8,246680722E-3;-9,162978968E-4
1,390058246E2;4,886921961E-3;9,773843922E-3;-1,221730490E-3
1,391058246E2;5,345070735E-3;1,114829071E-2;-1,527163084E-3
1,392058246E2;1,160643995E-2;9,162978269E-3;-1,527163084E-3
1,393058246E2;6,566801574E-3;3,207042580E-3;0,000000000E0
1,394058246E2;-7,635815418E-4;-5,955935922E-3;1,221730490E-3
1,395058246E2;-5,650503561E-3;-1,160643995E-2;2,290744567E-3
1,396058246E2;-5,497787148E-3;-1,145372353E-2;1,221730490E-3
1,397058246E2;-8,857546374E-3;-1,114829071E-2;1,374446787E-3
1,398058246E2;-7,024950348E-3;-7,177666761E-3;4,581489484E-4
1,399058246E2;-5,039638374E-3;-7,024950348E-3;1,527163084E-3
1,400058246E2;-1,069014193E-3;-8,093964309E-3;1,374446787E-3
1,401058246E2;0,000000000E0;-1,038470957E-2;2,138028387E-3
1,402058246E2;-1,221730490E-3;-1,221730467E-2;2,596177394E-3
1,403058246E2;-4,886921961E-3;-9,315694682E-3;2,748893574E-3
1,404058246E2;-2,443460980E-3;1,985311974E-3;1,527163113E-4
1,405058246E2;3,359758761E-3;7,941247895E-3;-9,162978968E-4
1,406058246E2;-4,734205548E-3;4,428773187E-3;4,123340361E-3
1,407058246E2;-4,276056774E-3;9,773843922E-3;3,970623948E-3
1,408058246E2;-2,443460980E-3;9,162978269E-3;2,901609987E-3
1,409058246E2;1,985311974E-3;1,420261711E-2;-0,000000000E0
1,410058246E2;1,374446787E-3;1,237002108E-2;-4,581489484E-4
1,411058246E2;-3,207042580E-3;8,246680722E-3;-3,054326226E-4
1,412058246E2;-4,581489484E-4;8,704829961E-3;-1,221730490E-3
1,413058246E2;1,527163113E-4;5,803219974E-3;-1,679879380E-3
1,414058246E2;9,162978968E-4;8,857546374E-3;-9,162978968E-4
1,415058246E2;1,985311974E-3;1,832595794E-3;-4,581489484E-4
1,416058246E2;2,138028387E-3;6,108652451E-4;1,527163113E-4
1,417058246E2;-3,970623948E-3;-1,404990070E-2;2,901609987E-3
1,418058246E2;-4,581489484E-4;-1,572977938E-2;2,596177394E-3
1,419058246E2;-6,108652451E-4;-1,007927675E-2;3,054326226E-4
1,420058246E2;1,374446787E-3;-9,621127509E-3;-3,054326226E-4
1,421058246E2;-7,635815418E-4;-9,621127509E-3;1,069014193E-3
1,422058246E2;1,221730490E-3;-1,038470957E-2;9,162978968E-4
1,423058246E2;0,000000000E0;-3,665191587E-3;-3,054326226E-4
1,424058246E2;-4,276056774E-3;-7,330383174E-3;2,901609987E-3
1,425058246E2;-2,138028387E-3;-6,719517522E-3;2,748893574E-3
1,426058246E2;-2,596177394E-3;-5,345070735E-3;2,596177394E-3
1,427058246E2;-9,162978968E-4;4,581489135E-3;1,832595794E-3
1,428058246E2;1,832595794E-3;8,246680722E-3;1,221730490E-3
1,429058246E2;-4,581489484E-4;1,267545391E-2;7,635815418E-4
1,430058246E2;-4,428773187E-3;1,084285788E-2;2,596177394E-3
1,431058246E2;-3,054326167E-3;1,084285788E-2;1,832595794E-3
1,432058246E2;2,290744567E-3;7,941247895E-3;1,374446787E-3
1,433058246E2;-1,832595794E-3;8,093964309E-3;1,069014193E-3
1,434058246E2;-2,138028387E-3;3,817907767E-3;1,527163084E-3
1,435058246E2;-4,581489484E-4;6,414085161E-3;1,527163113E-4
1,436058246E2;-6,108652451E-4;5,039638374E-3;-1,679879380E-3
1,437058246E2;-7,635815418E-4;3,207042580E-3;-1,679879380E-3
1,438058246E2;-4,581489135E-3;-7,024950348E-3;-1,221730490E-3
1,439058246E2;-2,290744567E-3;-1,435533352E-2;-2,138028387E-3
1,440058246E2;1,282817032E-2;-2,244929783E-2;-7,330383174E-3
1,441058246E2;5,803219974E-3;-1,649336144E-2;-2,138028387E-3
1,442058246E2;4,734205548E-3;1,130100712E-2;-1,527163113E-4
1,443058246E2;2,993239649E-2;4,688390717E-2;-7,330383174E-3
1,444058246E2;-8,399397135E-3;-2,107485011E-2;5,345070735E-3
1,445058246E2;3,665191587E-3;6,108652451E-4;-6,108652451E-4
1,446058246E2;4,581489135E-3;6,719517522E-3;-3,359758761E-3
1,447058246E2;-7,635815418E-4;-8,093964309E-3;4,581489484E-4
1,448058246E2;3,817907767E-3;1,221730490E-3;-7,635815418E-4
1,449058246E2;1,069014193E-3;2,596177394E-3;-6,108652451E-4
1,450058246E2;8,552113548E-3;1,252273750E-2;-2,748893574E-3
1,451058246E2;2,901609987E-3;1,175915636E-2;-1,527163084E-3
1,452058246E2;-4,734205548E-3;6,719517522E-3;1,985311974E-3
1,453058246E2;-5,192354787E-3;6,261368748E-3;3,207042580E-3
1,454058246E2;-8,399397135E-3;2,901609987E-3;2,748893574E-3
1,455058246E2;2,138028387E-3;5,039638374E-3;-6,108652451E-4
1,456058246E2;1,832595794E-3;3,054326167E-3;-7,635815418E-4
1,457058246E2;-1,069014193E-3;-3,207042580E-3;1,679879380E-3
1,458058246E2;3,665191587E-3;-2,748893574E-3;-1,527163113E-4
1,459058246E2;3,970623948E-3;-3,359758761E-3;-1,527163113E-4
1,460058246E2;-1,069014193E-3;-5,345070735E-3;1,069014193E-3
1,461058246E2;-2,596177394E-3;-3,512475174E-3;1,221730490E-3
1,462058246E2;-1,985311974E-3;-3,512475174E-3;9,162978968E-4
1,463058246E2;-3,665191587E-3;-7,941247895E-3;1,832595794E-3
1,464058246E2;-1,527163113E-4;-8,093964309E-3;1,069014193E-3
1,465058246E2;2,443460980E-3;-6,108652335E-3;0,000000000E0
1,466058246E2;2,748893574E-3;-2,901609987E-3;1,069014193E-3
1,467058246E2;2,596177394E-3;-7,635815418E-4;1,374446787E-3
1,468058246E2;-2,443460980E-3;1,832595794E-3;1,221730490E-3
1,469058246E2;-1,832595794E-3;2,748893574E-3;9,162978968E-4
1,470058246E2;-1,069014193E-3;1,679879380E-3;1,221730490E-3
1,471058246E2;1,221730490E-3;1,985311974E-3;4,581489484E-4
1,472058246E2;1,832595794E-3;4,428773187E-3;-4,581489484E-4
1,473058246E2;2,138028387E-3;6,108652335E-3;-1,527163113E-4
1,474058246E2;2,443460980E-3;5,345070735E-3;-4,581489484E-4
1,475058246E2;1,221730490E-3;5,497787148E-3;-1,527163084E-3
1,476058246E2;0,000000000E0;3,970623948E-3;-1,069014193E-3
1,477058246E2;-2,290744567E-3;-2,443460980E-3;4,581489484E-4
1,478058246E2;-3,970623948E-3;-3,207042580E-3;1,527163084E-3
1,479058246E2;-6,108652451E-4;-2,138028387E-3;1,374446787E-3
1,480058246E2;4,581489484E-4;-3,359758761E-3;1,679879380E-3
1,481058246E2;1,527163084E-3;-3,359758761E-3;9,162978968E-4
1,482058246E2;1,679879380E-3;-2,443460980E-3;3,054326226E-4
1,483058246E2;6,108652451E-4;-3,970623948E-3;1,527163113E-4
1,484058246E2;0,000000000E0;-3,054326167E-3;-4,581489484E-4
1,485058246E2;-1,679879380E-3;-1,679879380E-3;1,527163113E-4
1,486058246E2;3,054326226E-4;-1,374446787E-3;0,000000000E0
1,487058246E2;-2,290744567E-3;-9,162978968E-4;3,054326226E-4
1,488058246E2;-2,901609987E-3;-4,581489484E-4;1,832595794E-3
1,489058246E2;-2,443460980E-3;-1,527163113E-4;2,290744567E-3
1,490058246E2;-2,901609987E-3;3,512475174E-3;2,290744567E-3
1,491058246E2;-1,832595794E-3;4,734205548E-3;2,138028387E-3
1,492058246E2;3,054326226E-4;7,177666761E-3;9,162978968E-4
1,493058246E2;-6,108652451E-4;4,123340361E-3;4,581489484E-4
1,494058246E2;2,138028387E-3;5,803219974E-3;-1,069014193E-3
1,495058246E2;1,374446787E-3;5,039638374E-3;-4,581489484E-4
1,496058246E2;-4,581489484E-4;8,552113548E-3;-1,221730490E-3
1,497058246E2;-7,635815418E-4;1,007927675E-2;-1,221730490E-3
1,498058246E2;-2,290744567E-3;7,635815535E-3;-4,581489484E-4
1,499058246E2;-2,443460980E-3;5,192354787E-3;3,054326226E-4
1,500058246E2;-1,527163084E-3;-1,679879380E-3;3,054326226E-4
1,501058246E2;0,000000000E0;-4,123340361E-3;6,108652451E-4
1,502058246E2;-4,581489484E-4;-6,566801574E-3;9,162978968E-4
1,503058246E2;-2,138028387E-3;-7,483099122E-3;1,679879380E-3
1,504058246E2;-3,207042580E-3;-7,024950348E-3;1,985311974E-3
1,505058246E2;-2,596177394E-3;-7,024950348E-3;1,374446787E-3
1,506058246E2;-2,748893574E-3;-8,399397135E-3;4,581489484E-4
1,507058246E2;-2,443460980E-3;-6,566801574E-3;4,581489484E-4
1,508058246E2;7,635815418E-4;-5,192354787E-3;-1,527163113E-4
1,509058246E2;2,748893574E-3;6,108652451E-4;-1,069014193E-3
1,510058246E2;1,221730490E-3;3,054326167E-3;-6,108652451E-4
1,511058246E2;1,527163084E-3;7,635815535E-3;-9,162978968E-4
1,512058246E2;-2,138028387E-3;1,832595794E-3;9,162978968E-4
1,513058246E2;-4,276056774E-3;-1,527163084E-3;2,138028387E-3
1,514058246E2;-5,803219974E-3;-6,108652451E-4;2,748893574E-3
1,515058246E2;0,000000000E0;8,246680722E-3;1,374446787E-3
1,516058246E2;3,665191587E-3;1,435533352E-2;-3,054326226E-4
1,517058246E2;-1,069014193E-3;1,191187184E-2;-7,635815418E-4
1,518058246E2;-4,581489484E-4;7,483099122E-3;4,581489484E-4
1,519058246E2;-2,596177394E-3;-7,024950348E-3;3,054326226E-4
1,520058246E2;1,374446787E-3;-8,246680722E-3;1,527163113E-4
1,521058246E2;-2,596177394E-3;-5,192354787E-3;1,221730490E-3
1,522058246E2;-1,679879380E-3;-4,581489484E-4;1,069014193E-3
1,523058246E2;2,290744567E-3;5,955935922E-3;1,679879380E-3
1,524058246E2;2,290744567E-3;4,734205548E-3;1,221730490E-3
1,525058246E2;1,069014193E-3;-2,596177394E-3;6,108652451E-4
1,526058246E2;1,527163084E-3;-6,414085161E-3;-6,108652451E-4
1,527058246E2;-9,162978968E-4;-6,719517522E-3;-6,108652451E-4
1,528058246E2;-1,985311974E-3;-3,817907767E-3;-1,527163113E-4
1,529058246E2;-1,527163084E-3;2,290744567E-3;-4,581489484E-4
1,530058246E2;7,635815418E-4;5,650503561E-3;1,527163113E-4
1,531058246E2;1,679879380E-3;5,039638374E-3;6,108652451E-4
1,532058246E2;2,901609987E-3;1,374446787E-3;0,000000000E0
1,533058246E2;-1,374446787E-3;-1,374446787E-3;7,635815418E-4
1,534058246E2;-1,374446787E-3;-2,596177394E-3;1,832595794E-3
1,535058246E2;-3,359758761E-3;-3,207042580E-3;2,138028387E-3
1,536058246E2;-1,069014193E-3;-2,443460980E-3;1,527163084E-3
1,537058246E2;1,374446787E-3;-1,069014193E-3;1,374446787E-3
1,538058246E2;1,985311974E-3;7,635815418E-4;1,679879380E-3
1,539058246E2;4,581489135E-3;4,734205548E-3;-0,000000000E0
1,540058246E2;5,650503561E-3;5,803219974E-3;-7,635815418E-4
1,541058246E2;4,428773187E-3;7,635815535E-3;-2,290744567E-3
1,542058246E2;1,985311974E-3;7,024950348E-3;-3,207042580E-3
1,543058246E2;1,374446787E-3;7,483099122E-3;-3,665191587E-3
1,544058246E2;3,512475174E-3;4,734205548E-3;-3,817907767E-3
1,545058246E2;5,192354787E-3;-7,635815418E-4;-1,832595794E-3
1,546058246E2;4,123340361E-3;-1,007927675E-2;6,108652451E-4
1,547058246E2;3,207042580E-3;-1,847867295E-2;4,276056774E-3
1,548058246E2;1,832595794E-3;-1,832595654E-2;7,330383174E-3
1,549058246E2;-7,635815535E-3;-2,000583708E-2;1,007927675E-2
1,550058246E2;-8,704829961E-3;-1,343903504E-2;9,315694682E-3
1,551058246E2;-9,773843922E-3;-1,114829071E-2;7,941247895E-3
1,552058246E2;-1,527163107E-2;-4,276056774E-3;5,192354787E-3
1,553058246E2;-9,162978968E-4;9,773843922E-3;1,527163113E-4
1,554058246E2;1,618792862E-2;2,306016348E-2;-6,108652335E-3
1,555058246E2;1,924225502E-2;1,389718428E-2;-8,704829961E-3
1,556058246E2;1,924225502E-2;7,177666761E-3;-9,010262787E-3
1,557058246E2;1,527163113E-4;-3,359758761E-3;-4,734205548E-3
1,558058246E2;-6,108652451E-4;3,359758761E-3;-4,428773187E-3
1,559058246E2;-4,123340361E-3;2,306016348E-2;-1,679879380E-3
1,560058246E2;-4,123340361E-3;2,977968007E-2;-9,162978968E-4
1,561058246E2;-3,054326226E-4;2,367102914E-2;1,832595794E-3
1,562058246E2;-1,221730490E-3;1,572977938E-2;1,985311974E-3
1,563058246E2;4,276056774E-3;-3,970623948E-3;6,108652451E-4
1,564058246E2;8,552113548E-3;-8,857546374E-3;-1,069014193E-3
1,565058246E2;1,832595794E-3;-1,511891466E-2;-1,985311974E-3
1,566058246E2;1,527163113E-4;-1,404990070E-2;-1,679879380E-3
1,567058246E2;-2,901609987E-3;-8,857546374E-3;-7,635815418E-4
1,568058246E2;-2,138028387E-3;-9,926560335E-3;-1,527163113E-4
1,569058246E2;-1,527163113E-4;-1,664607786E-2;2,748893574E-3
1,570058246E2;4,276056774E-3;-1,832595654E-2;2,901609987E-3
1,571058246E2;8,093964309E-3;-1,374446787E-2;1,832595794E-3
1,572058246E2;4,123340361E-3;-1,237002108E-2;1,221730490E-3
1,573058246E2;1,527163113E-4;-7,330383174E-3;1,527163113E-4
1,574058246E2;0,000000000E0;-3,207042580E-3;-9,162978968E-4
1,575058246E2;-4,276056774E-3;-4,581489484E-4;-3,054326226E-4
1,576058246E2;-1,985311974E-3;3,359758761E-3;-7,635815418E-4
1,577058246E2;2,443460980E-3;1,481348183E-2;-1,985311974E-3
1,578058246E2;2,748893574E-3;2,031126991E-2;-2,290744567E-3
1,579058246E2;5,039638374E-3;2,260201424E-2;-9,162978968E-4
1,580058246E2;-3,054326226E-4;1,191187184E-2;1,221730490E-3
1,581058246E2;-1,069014193E-3;5,650503561E-3;1,527163084E-3
1,582058246E2;-7,635815418E-4;-1,527163113E-4;6,108652451E-4
1,583058246E2;2,596177394E-3;7,635815418E-4;-4,581489484E-4
1,584058246E2;3,512475174E-3;4,581489484E-4;-7,635815418E-4
1,585058246E2;2,748893574E-3;1,069014193E-3;-6,108652451E-4
1,586058246E2;-4,581489484E-4;-4,123340361E-3;6,108652451E-4
1,587058246E2;-1,985311974E-3;-7,941247895E-3;1,221730490E-3
1,588058246E2;-1,985311974E-3;-1,450804994E-2;3,054326226E-4
1,589058246E2;-1,527163084E-3;-1,404990070E-2;-3,054326226E-4
1,590058246E2;1,985311974E-3;-1,084285788E-2;-4,581489484E-4
1,591058246E2;1,985311974E-3;-1,023199316E-2;1,527163113E-4
1,592058246E2;3,054326167E-3;-6,108652335E-3;-3,054326226E-4
1,593058246E2;-0,000000000E0;-6,261368748E-3;6,108652451E-4
1,594058246E2;1,527163113E-4;-2,748893574E-3;-3,054326226E-4
1,595058246E2;-1,221730490E-3;-4,581489484E-4;3,054326226E-4
1,596058246E2;-1,069014193E-3;6,261368748E-3;1,527163113E-4
1,597058246E2;-1,527163113E-4;8,552113548E-3;-3,054326226E-4
1,598058246E2;1,832595794E-3;9,010262787E-3;-7,635815418E-4
1,599058246E2;9,162978968E-4;4,886921961E-3;-3,054326226E-4
1,600058246E2;1,069014193E-3;9,162978968E-4;-1,527163113E-4
1,601058246E2;-4,581489484E-4;2,290744567E-3;1,527163113E-4
1,602058246E2;1,069014193E-3;1,175915636E-2;-7,635815418E-4
1,603058246E2;1,527163084E-3;1,404990070E-2;-1,221730490E-3
1,604058246E2;1,221730490E-3;1,191187184E-2;-7,635815418E-4
1,605058246E2;1,679879380E-3;-3,054326167E-3;6,108652451E-4
1,606058246E2;6,108652451E-4;-8,857546374E-3;4,581489484E-4
1,607058246E2;1,679879380E-3;-1,084285788E-2;3,054326226E-4
1,608058246E2;-1,527163113E-4;-8,246680722E-3;3,054326226E-4
1,609058246E2;-6,108652451E-4;-2,596177394E-3;3,054326226E-4
1,610058246E2;-4,581489484E-4;-1,832595794E-3;4,581489484E-4
1,611058246E2;-1,221730490E-3;-8,704829961E-3;1,069014193E-3
1,612058246E2;-0,000000000E0;-8,857546374E-3;1,069014193E-3
1,613058246E2;-6,108652451E-4;-7,941247895E-3;9,162978968E-4
1,614058246E2;7,635815418E-4;-4,581489135E-3;1,221730490E-3
1,615058246E2;2,290744567E-3;4,581489135E-3;-4,581489484E-4
1,616058246E2;1,832595794E-3;5,345070735E-3;-9,162978968E-4
1,617058246E2;1,221730490E-3;5,192354787E-3;-1,069014193E-3
1,618058246E2;1,374446787E-3;5,650503561E-3;-4,581489484E-4
1,619058246E2;1,985311974E-3;6,414085161E-3;-4,581489484E-4
1,620058246E2;2,290744567E-3;5,345070735E-3;0,000000000E0
1,621058246E2;2,138028387E-3;3,970623948E-3;1,069014193E-3
1,622058246E2;2,290744567E-3;9,162978968E-4;1,221730490E-3
1,623058246E2;2,138028387E-3;-3,359758761E-3;2,901609987E-3
1,624058246E2;3,512475174E-3;-1,221730490E-3;1,679879380E-3
1,625058246E2;2,901609987E-3;3,207042580E-3;1,527163113E-4
1,626058246E2;6,108652451E-4;3,817907767E-3;-1,527163113E-4
1,627058246E2;3,054326226E-4;3,817907767E-3;-2,138028387E-3
1,628058246E2;-6,108652451E-4;2,901609987E-3;-2,901609987E-3
1,629058246E2;9,162978968E-4;-1,832595794E-3;-1,832595794E-3
1,630058246E2;-2,443460980E-3;-1,664607786E-2;2,596177394E-3
1,631058246E2;-7,635815418E-4;-1,542434748E-2;1,985311974E-3
1,632058246E2;-6,108652451E-4;-7,177666761E-3;3,665191587E-3
1,633058246E2;1,527163084E-3;4,886921961E-3;2,443460980E-3
1,634058246E2;1,114829071E-2;3,039054573E-2;-3,054326167E-3
1,635058246E2;1,038470957E-2;2,871066704E-2;-3,970623948E-3
1,636058246E2;1,527163107E-2;1,389718428E-2;-7,635815535E-3
1,637058246E2;3,359758761E-3;-1,832595794E-3;-7,788531948E-3
1,638058246E2;-3,359758761E-3;-2,535090782E-2;-2,290744567E-3
1,639058246E2;-9,010262787E-3;-2,443460934E-2;6,108652451E-4
1,640058246E2;-2,443460980E-3;4,581489484E-4;2,290744567E-3
1,641058246E2;-7,635815418E-4;9,773843922E-3;4,123340361E-3
1,642058246E2;6,108652451E-4;5,192354787E-3;5,039638374E-3
1,643058246E2;1,985311974E-3;-6,719517522E-3;6,108652335E-3
1,644058246E2;4,734205548E-3;-2,764165215E-2;5,345070735E-3
1,645058246E2;4,581489484E-4;-3,237585723E-2;4,123340361E-3
1,646058246E2;-2,748893574E-3;-2,367102914E-2;1,374446787E-3
1,647058246E2;-5,650503561E-3;-1,343903504E-2;9,162978968E-4
1,648058246E2;-2,901609987E-3;6,566801574E-3;-3,054326226E-4
1,649058246E2;1,985311974E-3;1,328631863E-2;-6,108652451E-4
1,650058246E2;6,719517522E-3;1,817324013E-2;-1,221730490E-3
1,651058246E2;3,665191587E-3;1,679879427E-2;-1,221730490E-3
1,652058246E2;1,832595794E-3;8,552113548E-3;1,527163113E-4
1,653058246E2;1,069014193E-3;6,261368748E-3;3,054326226E-4
1,654058246E2;1,221730490E-3;9,162978269E-3;4,581489484E-4
1,655058246E2;-1,679879380E-3;1,038470957E-2;1,527163084E-3
1,656058246E2;-1,069014193E-3;1,023199316E-2;2,290744567E-3
1,657058246E2;1,679879380E-3;9,926560335E-3;4,581489484E-4
1,658058246E2;4,123340361E-3;1,206458826E-2;-1,679879380E-3
1,659058246E2;0,000000000E0;1,221730490E-3;-1,069014193E-3
1,660058246E2;-3,207042580E-3;-2,138028387E-3;-1,374446787E-3
1,661058246E2;-5,039638374E-3;-1,038470957E-2;3,054326226E-4
1,662058246E2;-4,123340361E-3;-9,315694682E-3;1,527163113E-4
1,663058246E2;-1,374446787E-3;-8,552113548E-3;4,581489484E-4
1,664058246E2;7,635815418E-4;-4,123340361E-3;-4,581489484E-4
1,665058246E2;4,581489484E-4;-3,970623948E-3;1,527163113E-4
1,666058246E2;1,374446787E-3;-4,428773187E-3;-6,108652451E-4
1,667058246E2;2,901609987E-3;-5,497787148E-3;-2,138028387E-3
1,668058246E2;-5,192354787E-3;-9,926560335E-3;1,527163113E-4
1,669058246E2;-4,428773187E-3;-3,359758761E-3;-6,108652451E-4
1,670058246E2;-2,443460980E-3;-1,527163113E-4;-1,374446787E-3
1,671058246E2;-9,162978968E-4;2,596177394E-3;-3,054326226E-4
1,672058246E2;1,679879380E-3;5,345070735E-3;-1,221730490E-3
1,673058246E2;-1,527163084E-3;4,123340361E-3;4,581489484E-4
1,674058246E2;-7,635815418E-4;1,527163084E-3;7,635815418E-4
1,675058246E2;4,581489484E-4;2,901609987E-3;-3,054326226E-4
1,676058246E2;1,374446787E-3;1,221730490E-3;-4,581489484E-4
1,677058246E2;6,108652451E-4;4,581489484E-4;-1,527163113E-4
1,678058246E2;1,679879380E-3;-2,290744567E-3;1,527163113E-4
1,679058246E2;-3,359758761E-3;-6,719517522E-3;1,374446787E-3
1,680058246E2;-2,138028387E-3;-4,428773187E-3;1,679879380E-3
1,681058246E2;-3,817907767E-3;-3,665191587E-3;1,679879380E-3
1,682058246E2;-4,886921961E-3;1,527163113E-4;7,635815418E-4
1,683058246E2;-3,054326167E-3;1,221730490E-3;1,527163113E-4
1,684058246E2;1,527163084E-3;1,069014193E-3;-1,374446787E-3
1,685058246E2;1,527163113E-4;1,527163113E-4;-1,985311974E-3
1,686058246E2;3,359758761E-3;2,443460980E-3;-1,679879380E-3
1,687058246E2;2,290744567E-3;1,221730490E-3;-9,162978968E-4
1,688058246E2;9,010262787E-3;9,773843922E-3;-2,290744567E-3
1,689058246E2;1,252273750E-2;1,359175146E-2;-3,665191587E-3
1,690058246E2;4,581489484E-4;8,246680722E-3;-1,069014193E-3
1,691058246E2;-5,345070735E-3;4,581489135E-3;-1,527163113E-4
1,692058246E2;-1,007927675E-2;-2,596177394E-3;6,108652451E-4
1,693058246E2;-7,024950348E-3;-4,276056774E-3;-1,527163113E-4
1,694058246E2;-3,054326167E-3;-1,053742506E-2;-6,108652451E-4
1,695058246E2;-1,023199316E-2;-1,664607786E-2;1,679879380E-3
1,696058246E2;-8,857546374E-3;-1,542434748E-2;4,581489135E-3
1,697058246E2;-1,985311974E-3;-8,399397135E-3;3,359758761E-3
1,698058246E2;7,024950348E-3;-3,970623948E-3;1,221730490E-3
1,699058246E2;4,581489135E-3;-2,596177394E-3;-0,000000000E0
1,700058246E2;7,330383174E-3;-3,207042580E-3;-1,679879380E-3
1,701058246E2;9,162978968E-4;-4,886921961E-3;-9,162978968E-4
1,702058246E2;8,399397135E-3;6,108652451E-4;-2,443460980E-3
1,703058246E2;8,552113548E-3;1,023199316E-2;-3,359758761E-3
1,704058246E2;3,665191587E-3;1,328631863E-2;-2,290744567E-3
1,705058246E2;-8,704829961E-3;1,328631863E-2;7,635815418E-4
1,706058246E2;-1,038470957E-2;1,130100712E-2;7,635815418E-4
1,707058246E2;-7,483099122E-3;2,596177394E-3;1,832595794E-3
1,708058246E2;-8,552113548E-3;-1,985311974E-3;2,290744567E-3
1,709058246E2;1,221730490E-3;-1,221730490E-3;-3,054326226E-4
1,710058246E2;9,162978968E-4;-1,679879380E-3;-7,635815418E-4
1,711058246E2;9,162978269E-3;1,832595794E-3;-2,748893574E-3
1,712058246E2;6,414085161E-3;1,679879380E-3;-2,596177394E-3
1,713058246E2;-5,192354787E-3;-1,985311974E-3;3,054326226E-4
1,714058246E2;-1,130100712E-2;-4,428773187E-3;1,221730490E-3
1,715058246E2;-5,497787148E-3;-7,024950348E-3;2,443460980E-3
1,716058246E2;-1,221730490E-3;-3,970623948E-3;4,581489484E-4
1,717058246E2;4,734205548E-3;-4,428773187E-3;9,162978968E-4
1,718058246E2;6,719517522E-3;-4,581489484E-4;-4,581489484E-4
1,719058246E2;8,704829961E-3;7,635815418E-4;-9,162978968E-4
1,720058246E2;2,596177394E-3;2,290744567E-3;-9,162978968E-4
1,721058246E2;-3,665191587E-3;3,817907767E-3;-1,221730490E-3
1,722058246E2;-5,345070735E-3;5,650503561E-3;-9,162978968E-4
1,723058246E2;-1,832595794E-3;7,330383174E-3;-6,108652451E-4
1,724058246E2;-3,054326226E-4;6,108652335E-3;-1,527163113E-4
1,725058246E2;2,748893574E-3;7,635815418E-4;7,635815418E-4
1,726058246E2;3,512475174E-3;-4,581489484E-4;6,108652451E-4
1,727058246E2;1,221730490E-3;-3,970623948E-3;3,054326226E-4
1,728058246E2;-3,054326167E-3;-4,428773187E-3;0,000000000E0
1,729058246E2;-5,039638374E-3;-4,276056774E-3;1,527163113E-4
1,730058246E2;-1,832595794E-3;-5,192354787E-3;-6,108652451E-4
1,731058246E2;-3,054326226E-4;-5,192354787E-3;-7,635815418E-4
1,732058246E2;1,374446787E-3;-7,024950348E-3;-0,000000000E0
1,733058246E2;1,985311974E-3;-5,803219974E-3;0,000000000E0
1,734058246E2;1,527163084E-3;-4,123340361E-3;-1,527163113E-4
1,735058246E2;4,581489484E-4;-3,207042580E-3;3,054326226E-4
1,736058246E2;-9,162978968E-4;-2,138028387E-3;7,635815418E-4
1,737058246E2;-6,108652451E-4;-1,985311974E-3;9,162978968E-4
1,738058246E2;1,527163113E-4;6,108652451E-4;1,527163113E-4
1,739058246E2;1,679879380E-3;2,596177394E-3;-1,527163113E-4
1,740058246E2;2,443460980E-3;3,054326167E-3;-3,054326226E-4
1,741058246E2;-6,108652451E-4;3,512475174E-3;-3,054326226E-4
1,742058246E2;7,635815418E-4;4,581489135E-3;-1,069014193E-3
1,743058246E2;-3,054326226E-4;2,901609987E-3;-6,108652451E-4
1,744058246E2;7,635815418E-4;5,650503561E-3;-9,162978968E-4
1,745058246E2;1,221730490E-3;5,039638374E-3;-4,581489484E-4
1,746058246E2;-4,581489484E-4;3,359758761E-3;-0,000000000E0
1,747058246E2;9,162978968E-4;2,901609987E-3;-1,527163113E-4
1,748058246E2;-1,679879380E-3;-7,635815418E-4;-3,054326226E-4
1,749058246E2;-1,374446787E-3;-2,901609987E-3;-3,054326226E-4
1,750058246E2;3,054326226E-4;-2,901609987E-3;4,581489484E-4
1,751058246E2;9,162978968E-4;-3,512475174E-3;9,162978968E-4
1,752058246E2;1,069014193E-3;-2,443460980E-3;3,054326226E-4
1,753058246E2;4,581489484E-4;-3,970623948E-3;6,108652451E-4
1,754058246E2;0,000000000E0;-3,665191587E-3;3,054326226E-4
1,755058246E2;-1,527163084E-3;-1,985311974E-3;-1,527163113E-4
1,756058246E2;-1,069014193E-3;4,581489484E-4;-3,054326226E-4
1,757058246E2;-6,108652451E-4;1,679879380E-3;-6,108652451E-4
1,758058246E2;1,527163113E-4;2,443460980E-3;-6,108652451E-4
1,759058246E2;4,428773187E-3;6,414085161E-3;-1,527163084E-3
1,760058246E2;1,832595794E-3;5,192354787E-3;-1,069014193E-3
1,761058246E2;1,221730490E-3;3,359758761E-3;-1,527163113E-4
1,762058246E2;6,108652451E-4;2,901609987E-3;0,000000000E0
1,763058246E2;-2,138028387E-3;-4,581489484E-4;7,635815418E-4
1,764058246E2;-1,832595794E-3;-3,054326226E-4;3,054326226E-4
1,765058246E2;-1,527163084E-3;-3,054326167E-3;4,581489484E-4
1,766058246E2;1,527163113E-4;-2,290744567E-3;1,527163113E-4
1,767058246E2;1,343903504E-2;-1,985311974E-3;-6,108652451E-4
1,768058246E2;-1,130100712E-2;-5,192354787E-3;6,108652451E-4
1,769058246E2;-2,290744567E-3;-4,734205548E-3;6,108652451E-4
1,770058246E2;-7,635815418E-4;-2,290744567E-3;-1,527163113E-4
1,771058246E2;1,069014193E-3;-2,138028387E-3;-1,527163113E-4
1,772058246E2;-3,817907767E-3;-3,054326167E-3;6,108652451E-4
1,773058246E2;2,901609987E-3;-0,000000000E0;-3,054326226E-4
1,774058246E2;1,221730490E-3;3,054326226E-4;-4,581489484E-4
1,775058246E2;-1,527163113E-4;2,443460980E-3;-3,054326226E-4
1,776058246E2;1,374446787E-3;5,039638374E-3;-9,162978968E-4
1,777058246E2;-4,581489484E-4;4,734205548E-3;-9,162978968E-4
1,778058246E2;6,108652451E-4;4,123340361E-3;-6,108652451E-4
1,779058246E2;2,138028387E-3;1,985311974E-3;-3,054326226E-4
1,780058246E2;1,985311974E-3;-1,527163084E-3;3,054326226E-4
1,781058246E2;-1,832595794E-3;-3,359758761E-3;9,162978968E-4
1,782058246E2;4,581489484E-4;-1,832595794E-3;1,069014193E-3
1,783058246E2;-3,054326226E-4;-1,374446787E-3;6,108652451E-4
1,784058246E2;3,054326226E-4;-9,162978968E-4;-3,054326226E-4
1,785058246E2;0,000000000E0;-4,276056774E-3;-6,108652451E-4
1,786058246E2;4,581489484E-4;-7,941247895E-3;-4,581489484E-4
1,787058246E2;0,000000000E0;-1,023199316E-2;4,581489484E-4
1,788058246E2;1,069014193E-3;-3,512475174E-3;-3,054326226E-4
1,789058246E2;1,985311974E-3;-9,162978968E-4;6,108652451E-4
1,790058246E2;7,635815418E-4;1,069014193E-3;9,162978968E-4
1,791058246E2;-4,581489484E-4;3,054326167E-3;6,108652451E-4
1,792058246E2;-1,679879380E-3;4,581489484E-4;6,108652451E-4
1,793058246E2;-9,162978968E-4;1,374446787E-3;-3,054326226E-4
1,794058246E2;-1,221730490E-3;2,901609987E-3;-7,635815418E-4
1,795058246E2;-1,069014193E-3;6,414085161E-3;-1,527163084E-3
1,796058246E2;-4,581489484E-4;7,941247895E-3;-7,635815418E-4
1,797058246E2;1,679879380E-3;6,566801574E-3;-1,527163113E-4
1,798058246E2;5,192354787E-3;7,788531948E-3;-1,221730490E-3
1,799058246E2;2,138028387E-3;3,512475174E-3;1,527163113E-4
1,800058246E2;1,832595794E-3;-1,374446787E-3;7,635815418E-4
1,801058246E2;-1,527163084E-3;-2,443460980E-3;1,374446787E-3
1,802058246E2;-9,162978968E-4;-1,069014193E-3;6,108652451E-4
1,803058246E2;-3,817907767E-3;-3,359758761E-3;6,108652451E-4
1,804058246E2;3,054326226E-4;-2,748893574E-3;0,000000000E0
1,805058246E2;1,985311974E-3;-4,886921961E-3;-9,162978968E-4
1,806058246E2;1,679879380E-3;-5,803219974E-3;-7,635815418E-4
1,807058246E2;6,108652451E-4;-5,955935922E-3;-7,635815418E-4
1,808058246E2;3,054326226E-4;-6,261368748E-3;3,054326226E-4
1,809058246E2;-4,581489484E-4;-2,443460980E-3;4,581489484E-4
1,810058246E2;-1,527163113E-4;-1,985311974E-3;1,221730490E-3
1,811058246E2;-1,527163084E-3;-3,665191587E-3;1,832595794E-3
1,812058246E2;-2,290744567E-3;-4,886921961E-3;2,443460980E-3
1,813058246E2;-4,581489484E-4;-6,108652451E-4;1,221730490E-3
1,814058246E2;1,374446787E-3;2,290744567E-3;6,108652451E-4
1,815058246E2;3,207042580E-3;7,024950348E-3;-1,069014193E-3
1,816058246E2;-7,635815418E-4;5,803219974E-3;-7,635815418E-4
1,817058246E2;-4,276056774E-3;7,177666761E-3;-3,054326226E-4
1,818058246E2;1,679879380E-3;8,399397135E-3;-3,054326226E-4
1,819058246E2;5,345070735E-3;1,389718428E-2;-2,748893574E-3
1,820058246E2;4,581489484E-4;1,023199316E-2;-9,162978968E-4
1,821058246E2;7,635815418E-4;8,399397135E-3;-7,635815418E-4
1,822058246E2;2,290744567E-3;7,177666761E-3;-2,138028387E-3
1,823058246E2;3,054326226E-4;-0,000000000E0;-4,581489484E-4
1,824058246E2;6,108652451E-4;-6,108652451E-4;-1,069014193E-3
1,825058246E2;2,596177394E-3;-9,162978968E-4;-1,527163084E-3
1,826058246E2;1,527163113E-4;-6,261368748E-3;-4,581489484E-4
1,827058246E2;-7,635815418E-4;-7,330383174E-3;7,635815418E-4
1,828058246E2;1,374446787E-3;-1,221730467E-2;-1,527163113E-4
1,829058246E2;-9,162978968E-4;-1,420261711E-2;1,374446787E-3
1,830058246E2;-3,054326167E-3;-9,926560335E-3;7,635815418E-4
1,831058246E2;-1,069014193E-3;-6,566801574E-3;-0,000000000E0
1,832058246E2;-6,108652451E-4;-3,970623948E-3;-6,108652451E-4
1,833058246E2;2,443460980E-3;-1,527163113E-4;-1,374446787E-3
1,834058246E2;-1,527163113E-4;-3,207042580E-3;-0,000000000E0
1,835058246E2;-2,290744567E-3;-2,443460980E-3;7,635815418E-4
1,836058246E2;-3,512475174E-3;1,985311974E-3;6,108652451E-4
1,837058246E2;-7,635815418E-4;4,734205548E-3;9,162978968E-4
1,838058246E2;-1,527163113E-4;5,955935922E-3;1,374446787E-3
1,839058246E2;-1,527163113E-4;7,635815535E-3;1,069014193E-3
1,840058246E2;1,679879380E-3;4,276056774E-3;1,679879380E-3
1,841058246E2;3,359758761E-3;3,512475174E-3;6,108652451E-4
1,842058246E2;-1,069014193E-3;2,290744567E-3;6,108652451E-4
1,843058246E2;-9,162978968E-4;2,596177394E-3;4,581489484E-4
1,844058246E2;-1,221730490E-3;2,901609987E-3;1,527163113E-4
1,845058246E2;1,527163084E-3;5,497787148E-3;-6,108652451E-4
1,846058246E2;5,650503561E-3;4,123340361E-3;-1,527163084E-3
1,847058246E2;-3,054326226E-4;3,665191587E-3;-2,596177394E-3
1,848058246E2;-4,428773187E-3;-7,788531948E-3;2,138028387E-3
1,849058246E2;-4,581489135E-3;-5,039638374E-3;4,581489484E-4
1,850058246E2;-1,985311974E-3;-5,039638374E-3;1,679879380E-3
1,851058246E2;-2,748893574E-3;-4,734205548E-3;1,679879380E-3
1,852058246E2;0,000000000E0;-1,374446787E-3;7,635815418E-4
1,853058246E2;7,177666761E-3;1,527163113E-4;-4,581489484E-4
1,854058246E2;6,261368748E-3;6,108652451E-4;-1,985311974E-3
1,855058246E2;6,566801574E-3;3,817907767E-3;-2,138028387E-3
1,856058246E2;-6,108652451E-4;3,665191587E-3;-1,832595794E-3
1,857058246E2;-5,039638374E-3;3,359758761E-3;3,054326226E-4
1,858058246E2;-3,359758761E-3;6,566801574E-3;-1,221730490E-3
1,859058246E2;-2,748893574E-3;3,665191587E-3;1,374446787E-3
1,860058246E2;-7,635815418E-4;4,123340361E-3;1,221730490E-3
1,861058246E2;2,443460980E-3;1,374446787E-3;9,162978968E-4
1,862058246E2;2,138028387E-3;-1,527163084E-3;1,069014193E-3
1,863058246E2;6,261368748E-3;-1,374446787E-3;-7,635815418E-4
1,864058246E2;-1,069014193E-3;-3,970623948E-3;-3,054326226E-4
1,865058246E2;-3,207042580E-3;-1,679879380E-3;-1,527163113E-4
1,866058246E2;-3,207042580E-3;1,679879380E-3;-1,374446787E-3
1,867058246E2;-9,162978968E-4;1,679879380E-3;-1,527163084E-3
1,868058246E2;-1,069014193E-3;4,581489484E-4;-4,581489484E-4
1,869058246E2;1,374446787E-3;1,527163084E-3;-1,069014193E-3
1,870058246E2;1,679879380E-3;-1,527163113E-4;-9,162978968E-4
1,871058246E2;1,832595794E-3;-4,734205548E-3;4,581489484E-4
1,872058246E2;-1,069014193E-3;-7,330383174E-3;1,221730490E-3
1,873058246E2;-3,207042580E-3;-6,414085161E-3;1,374446787E-3
1,874058246E2;-4,886921961E-3;-7,788531948E-3;2,748893574E-3
1,875058246E2;4,581489484E-4;-2,443460980E-3;1,221730490E-3
1,876058246E2;1,527163113E-4;-4,123340361E-3;1,069014193E-3
1,877058246E2;1,374446787E-3;-4,428773187E-3;9,162978968E-4
1,878058246E2;5,192354787E-3;2,138028387E-3;-1,985311974E-3
1,879058246E2;6,108652451E-4;4,123340361E-3;-1,832595794E-3
1,880058246E2;-4,886921961E-3;6,566801574E-3;-9,162978968E-4
1,881058246E2;9,162978968E-4;1,007927675E-2;-1,679879380E-3
1,882058246E2;9,162978968E-4;9,773843922E-3;-1,679879380E-3
1,883058246E2;6,108652451E-4;7,024950348E-3;-4,581489484E-4
1,884058246E2;3,359758761E-3;2,443460980E-3;-3,054326226E-4
1,885058246E2;3,054326167E-3;-1,221730490E-3;1,069014193E-3
1,886058246E2;9,162978968E-4;-2,138028387E-3;0,000000000E0
1,887058246E2;-4,886921961E-3;-6,566801574E-3;1,221730490E-3
1,888058246E2;-3,054326167E-3;-8,857546374E-3;1,679879380E-3
1,889058246E2;-3,817907767E-3;-7,788531948E-3;1,679879380E-3
1,890058246E2;4,581489484E-4;-3,665191587E-3;-4,581489484E-4
1,891058246E2;2,290744567E-3;-3,207042580E-3;-4,581489484E-4
1,892058246E2;4,734205548E-3;8,093964309E-3;-3,970623948E-3
1,893058246E2;2,748893574E-3;2,901609987E-3;-9,162978968E-4
1,894058246E2;-5,650503561E-3;7,330383174E-3;-1,985311974E-3
1,895058246E2;-6,108652335E-3;2,748893574E-3;1,527163113E-4
1,896058246E2;-7,483099122E-3;2,901609987E-3;1,527163084E-3
1,897058246E2;-2,290744567E-3;5,192354787E-3;1,221730490E-3
1,898058246E2;9,773843922E-3;8,093964309E-3;1,374446787E-3
1,899058246E2;1,130100712E-2;7,788531948E-3;9,162978968E-4
1,900058246E2;1,206458826E-2;5,039638374E-3;-7,635815418E-4
1,901058246E2;5,192354787E-3;-4,581489484E-4;-3,054326226E-4
1,902058246E2;-6,872233935E-3;-4,428773187E-3;-3,054326226E-4
1,903058246E2;-9,926560335E-3;-9,162978968E-4;-6,108652451E-4
1,904058246E2;-5,497787148E-3;2,290744567E-3;-1,374446787E-3
1,905058246E2;2,596177394E-3;5,650503561E-3;-2,138028387E-3
1,906058246E2;5,039638374E-3;2,138028387E-3;-9,162978968E-4
1,907058246E2;7,941247895E-3;-3,207042580E-3;-1,221730490E-3
1,908058246E2;1,221730490E-3;-5,803219974E-3;-3,054326226E-4
1,909058246E2;-1,679879380E-3;-4,276056774E-3;-1,527163113E-4
1,910058246E2;-2,901609987E-3;-4,123340361E-3;-1,527163113E-4
1,911058246E2;-6,719517522E-3;-3,665191587E-3;-6,108652451E-4
1,912058246E2;-1,069014193E-3;-4,581489484E-4;-1,985311974E-3
1,913058246E2;3,054326167E-3;-2,748893574E-3;-1,069014193E-3
1,914058246E2;5,497787148E-3;-5,497787148E-3;-1,527163113E-4
1,915058246E2;3,054326167E-3;-1,114829071E-2;2,443460980E-3
1,916058246E2;7,635815418E-4;-1,130100712E-2;3,207042580E-3
1,917058246E2;7,635815418E-4;-4,123340361E-3;2,748893574E-3
1,918058246E2;-1,679879380E-3;-9,162978968E-4;2,290744567E-3
1,919058246E2;-1,527163084E-3;1,679879380E-3;7,635815418E-4
1,920058246E2;-5,345070735E-3;6,108652451E-4;-4,581489484E-4
1,921058246E2;6,108652451E-4;6,108652451E-4;-1,832595794E-3
1,922058246E2;1,985311974E-3;2,596177394E-3;-2,138028387E-3
1,923058246E2;2,138028387E-3;1,130100712E-2;-2,748893574E-3
1,924058246E2;2,748893574E-3;1,328631863E-2;-1,679879380E-3
1,925058246E2;-9,162978968E-4;1,298088674E-2;-1,527163113E-4
1,926058246E2;-6,108652451E-4;1,206458826E-2;-3,054326226E-4
1,927058246E2;-2,748893574E-3;5,650503561E-3;0,000000000E0
1,928058246E2;-2,290744567E-3;4,581489484E-4;7,635815418E-4
1,929058246E2;-2,748893574E-3;-3,054326226E-4;-1,527163113E-4
1,930058246E2;1,527163084E-3;-4,886921961E-3;-4,581489484E-4
1,931058246E2;3,817907767E-3;-5,650503561E-3;-1,221730490E-3
1,932058246E2;1,069014193E-3;-9,773843922E-3;-1,527163113E-4
1,933058246E2;-3,817907767E-3;-1,175915636E-2;1,527163084E-3
1,934058246E2;1,374446787E-3;-5,497787148E-3;4,581489484E-4
1,935058246E2;9,162978968E-4;-4,276056774E-3;-6,108652451E-4
1,936058246E2;-7,788531948E-3;-5,803219974E-3;6,108652451E-4
1,937058246E2;-2,748893574E-3;-4,123340361E-3;-0,000000000E0
1,938058246E2;-2,596177394E-3;-7,635815418E-4;-1,069014193E-3
1,939058246E2;6,414085161E-3;8,552113548E-3;-4,123340361E-3
1,940058246E2;1,527163084E-3;5,039638374E-3;-2,901609987E-3
1,941058246E2;9,162978269E-3;3,359758761E-3;-1,374446787E-3
1,942058246E2;8,399397135E-3;5,497787148E-3;-1,221730490E-3
1,943058246E2;9,162978269E-3;9,621127509E-3;-2,290744567E-3
1,944058246E2;-9,162978269E-3;-1,374446787E-3;3,359758761E-3
1,945058246E2;-1,572977938E-2;-5,039638374E-3;4,734205548E-3
1,946058246E2;-8,552113548E-3;-1,389718428E-2;2,748893574E-3
1,947058246E2;-5,650503561E-3;-1,618792862E-2;2,748893574E-3
1,948058246E2;3,054326226E-4;-5,955935922E-3;4,581489484E-4
1,949058246E2;3,207042580E-3;-2,443460980E-3;-1,527163113E-4
1,950058246E2;1,038470957E-2;4,581489135E-3;-4,581489484E-4
1,951058246E2;1,832595794E-3;9,162978968E-4;6,108652451E-4
1,952058246E2;-3,054326167E-3;-5,345070735E-3;7,635815418E-4
1,953058246E2;-5,497787148E-3;-6,108652335E-3;4,581489484E-4
1,954058246E2;-3,207042580E-3;-2,290744567E-3;3,054326226E-4
1,955058246E2;4,886921961E-3;7,635815535E-3;-7,635815418E-4
1,956058246E2;9,010262787E-3;8,704829961E-3;1,527163113E-4
1,957058246E2;1,130100712E-2;1,511891466E-2;-1,374446787E-3
1,958058246E2;5,803219974E-3;1,282817032E-2;-1,221730490E-3
1,959058246E2;-4,276056774E-3;1,038470957E-2;-6,108652451E-4
1,960058246E2;-6,566801574E-3;9,162978269E-3;-1,221730490E-3
1,961058246E2;-6,872233935E-3;8,246680722E-3;-2,443460980E-3
1,962058246E2;-5,955935922E-3;6,566801574E-3;-1,832595794E-3
1,963058246E2;1,069014193E-3;7,635815535E-3;-2,290744567E-3
1,964058246E2;5,497787148E-3;8,246680722E-3;-2,901609987E-3
1,965058246E2;5,192354787E-3;-3,054326226E-4;-0,000000000E0
1,966058246E2;4,428773187E-3;-3,054326167E-3;1,527163113E-4
1,967058246E2;-2,290744567E-3;-1,099557430E-2;1,221730490E-3
1,968058246E2;-2,748893574E-3;-1,206458826E-2;9,162978968E-4
1,969058246E2;-3,817907767E-3;-1,435533352E-2;6,108652451E-4
1,970058246E2;-1,527163113E-4;-1,359175146E-2;0,000000000E0
1,971058246E2;-2,290744567E-3;-1,572977938E-2;1,069014193E-3
1,972058246E2;-2,443460980E-3;-1,374446787E-2;1,069014193E-3
1,973058246E2;2,748893574E-3;-5,039638374E-3;1,221730490E-3
1,974058246E2;-6,414085161E-3;-1,985311974E-3;3,054326226E-4
1,975058246E2;-8,552113548E-3;4,581489484E-4;1,221730490E-3
1,976058246E2;1,069014193E-3;3,359758761E-3;-7,635815418E-4
1,977058246E2;-6,108652451E-4;4,886921961E-3;-2,748893574E-3
1,978058246E2;1,832595794E-3;7,635815535E-3;-2,443460980E-3
1,979058246E2;-7,788531948E-3;5,955935922E-3;-6,108652451E-4
1,980058246E2;-4,886921961E-3;6,719517522E-3;2,443460980E-3
1,981058246E2;-4,886921961E-3;3,817907767E-3;3,512475174E-3
1,982058246E2;-5,345070735E-3;-1,832595794E-3;3,970623948E-3
1,983058246E2;-2,748893574E-3;-2,138028387E-3;3,359758761E-3
1,984058246E2;2,748893574E-3;1,069014193E-3;-0,000000000E0
1,985058246E2;4,123340361E-3;-4,581489484E-4;-6,108652451E-4
