"Time (s)";"Gyroscope x (rad/s)";"Gyroscope y (rad/s)";"Gyroscope z (rad/s)"
1,885771100E-2;-1,832595654E-2;-1,777006984E0;-4,224133193E-1
8,465353100E-2;-2,153299935E-2;-9,556986690E-1;-3,947716653E-1
1,846535310E-1;-5,658139586E-1;-8,176431060E-1;-8,031350970E-1
2,846535310E-1;-1,474017859E0;-1,055269688E-1;-4,263839424E-1
3,846535310E-1;-8,310821652E-1;-9,892962575E-1;2,443460980E-3
4,846535310E-1;1,313360333E-1;-8,510879874E-1;3,811798990E-1
5,846535310E-1;-1,944078654E-1;-1,082147837E0;9,019425511E-1
6,846535310E-1;2,378251076E0;-3,842342496E-1;1,935679197E0
7,846535310E-1;1,343292713E0;-3,160464048E0;8,622363210E-1
8,846535310E-1;-3,454442918E-1;-1,929570556E0;-4,648684561E-1
9,846535310E-1;1,084285825E-1;-2,132836103E0;5,222898126E-1
1,084653531E0;-1,507462740E0;-2,282956123E0;1,299004912E0
1,184653531E0;-1,093906879E0;-4,375322342E0;2,265393734E0
1,284653531E0;-9,401215911E-1;3,743076921E-1;4,072638512E0
1,384653531E0;2,164448261E0;1,327104717E-1;2,875342607E0
1,484653531E0;8,739954233E-1;1,450804919E-1;7,373143435E-1
1,584653531E0;1,322217822E0;-3,218801737E0;1,146746755E0
1,684653531E0;1,030987859E0;-4,064239025E0;-9,873109460E-1
1,784653531E0;-1,728748679E-1;-2,388788462E0;-9,506590366E-1
1,884653531E0;-1,780824900E0;1,675297976E0;7,151705027E-1
1,984653531E0;-1,218981624E0;7,751879692E-1;6,805039048E-1
2,084653531E0;-7,881689072E-1;-3,118467033E-1;-2,938261926E-1
2,184653531E0;-1,375973940E0;4,578435123E-1;-3,460551500E-1
2,284653531E0;9,929614663E-1;-3,732386529E-1;6,267477274E-1
2,384653531E0;7,275404930E-1;-4,906775057E-1;1,129795313E0
2,484653531E0;2,078468949E-1;-5,254968405E-1;4,822781086E-1
2,584653531E0;1,400408596E-1;-1,089630842E0;-2,724458873E-1
2,684653531E0;-1,174999356E0;-8,411614299E-1;-2,321287990E-2
2,784653531E0;4,263839424E-1;9,312640429E-1;1,446070790E0
2,884653531E0;-1,829541475E-1;-1,649336144E-2;-1,808161139E-1
2,984653531E0;-1,556026459E0;2,611449063E-1;-1,144914150E0
3,084653531E0;-2,176970959E0;-1,448666930E0;-2,072665691E0
3,184653531E0;6,687447429E-1;8,388707042E-1;9,703594446E-1
3,284653531E0;8,842274547E-1;1,449277848E-1;1,911550045E0
3,384653531E0;1,255633473E0;-9,987646937E-1;7,377725244E-1
3,484653531E0;6,177374721E-1;-2,141999006E0;-1,023199316E-2
3,584653531E0;7,521278262E-1;1,570229053E0;2,794097662E0
3,684653531E0;8,946121335E-1;-7,223481536E-1;3,739717007E0
3,784653531E0;-7,095199823E-1;1,185689449E0;2,460259795E-1
3,884653531E0;-1,585042596E0;1,835039139E0;-1,322370529E0
3,984653531E0;-1,621847153E-1;-3,878994286E-1;-8,145887852E-1
4,084653531E0;7,031059265E-1;-7,634288669E-1;6,294966340E-1
4,184653531E0;2,264782935E-1;-2,512488842E0;1,427439332E0
4,284653531E0;4,642575979E-2;-1,246165156E0;-1,288925707E-1
4,384653531E0;-1,649336219E-1;1,582140923E-1;-4,156937897E-1
4,484653531E0;1,400408596E-1;-2,449569702E-1;2,955060601E-1
4,584653531E0;7,510588169E-1;4,729624093E-1;8,098546267E-1
4,684653531E0;1,524108797E-1;4,389066696E-1;3,498730659E-1
4,784653531E0;-1,331228137E0;1,051604509E0;-7,809911966E-1
4,884653531E0;-8,823948503E-1;6,762278080E-1;-2,237293959E0
4,984653531E0;2,087631971E-1;-1,620778203E0;-2,113593817E-1
5,084653531E0;4,416555762E-1;-1,746463776E0;8,419250250E-1
5,184653531E0;-1,912008226E-1;-1,293812633E0;-2,142609805E-1
5,284653531E0;8,903361112E-2;-9,847147465E-1;-8,429940045E-2
5,384653531E0;-4,667010605E-1;-1,059393048E0;3,191770911E-1
5,484653531E0;9,611964822E-1;-2,095267773E-1;7,105889916E-1
5,584653531E0;1,152855396E0;1,994474977E-1;1,018770456E0
5,684653531E0;8,462010622E-1;-6,765332818E-2;7,186829448E-1
5,784653531E0;4,382958114E-1;2,700024247E-1;6,777549982E-1
5,884653531E0;-1,014341712E0;8,081747293E-1;-1,711949855E-1
5,984653531E0;-2,277305603E0;1,296714187E0;-1,746463776E0
6,084653531E0;3,488040566E-1;-8,083274364E-1;-3,212998390E0
6,184653531E0;-9,381362796E-1;-2,816546917E0;-2,368324518E0
6,284653531E0;8,950703144E-1;-9,931141734E-1;1,204473495E0
6,384653531E0;1,822058320E0;-1,299463034E0;2,094046116E0
6,484653531E0;2,929098904E-1;-3,199406862E-1;4,247040749E-1
6,584653531E0;-1,386664063E-1;-1,370476127E0;2,067778856E-1
6,684653531E0;-5,090034604E-1;-4,931209683E-1;3,242167234E-1
6,784653531E0;1,357800722E0;1,550070494E-1;1,077260852E0
6,884653531E0;-1,057255030E0;1,829694152E0;-9,920451641E-1
6,984653531E0;-2,436283350E0;-3,970623948E-3;-2,104583502E0
7,084653531E0;3,775147200E-1;3,668245673E-1;-9,915869832E-1
7,184653531E0;1,513571382E0;-8,865181804E-1;3,550654352E-1
7,284653531E0;-4,381431043E-1;-2,771800995E0;6,459899992E-2
7,384653531E0;-5,335907936E-1;-4,683809280E-1;-5,604688451E-2
7,484653531E0;1,749670744E0;1,647503614E0;8,402451277E-1
7,584653531E0;1,799914479E0;-2,101376504E-1;1,098946571E0
7,684653531E0;1,886046410E0;1,436144233E0;8,600982428E-1
7,784653531E0;6,195700765E-1;1,280526280E0;6,951646209E-1
7,884653531E0;4,555527568E-1;2,735149264E-1;-7,238753140E-2
7,984653531E0;-1,905746818E0;9,918924570E-1;-2,402685642E0
8,084653531E0;-1,433547974E0;1,875050902E0;-1,632079244E0
8,184653531E0;-1,416138411E0;-2,539214134E0;-1,787849903E0
8,284653531E0;-1,066876173E0;-2,768135786E0;-6,175847650E-1
8,384653531E0;-5,765040517E-1;-1,401019454E0;-3,959933817E-1
8,484653531E0;-8,292495608E-1;-8,006916046E-1;-6,307183504E-1
8,584653531E0;9,410378933E-1;4,350887835E-1;-4,627304152E-2
8,684653531E0;2,113440990E0;2,102598190E0;1,431562662E0
8,784653531E0;9,753990769E-1;-5,781839490E-1;1,023046613E0
8,884653531E0;1,485929728E0;8,310821652E-1;5,900958180E-1
8,984653531E0;4,529565871E-1;3,672827184E-1;9,911288619E-1
9,084653531E0;1,685988009E-1;2,641992271E-2;2,257147133E-1
9,184653531E0;-2,131156206E0;1,023352027E0;-2,246456861E0
9,284653531E0;-1,272585034E0;1,969887733E0;-1,848325491E0
9,384653531E0;-1,032209516E0;-1,407891631E0;-1,763415217E0
9,484653531E0;-6,806566119E-1;-2,277763844E0;-6,910412908E-1
9,584653531E0;-5,951354504E-1;-1,182176948E0;-2,753475010E-1
9,684653531E0;-9,158397317E-1;-1,039234519E0;-6,236934066E-1
9,784653531E0;1,207222462E0;1,076039076E0;5,740606189E-1
9,884653531E0;2,284330606E0;1,817324162E0;1,757001162E0
9,984653531E0;1,037401915E0;-3,346014321E-1;6,798930168E-1
1,008465353E1;8,959866166E-1;7,325801253E-1;1,193019867E0
1,018465353E1;4,711298347E-1;4,712825418E-1;1,145983219E0
1,028465353E1;-5,876523852E-1;-4,810563847E-2;-7,095199823E-1
1,038465353E1;-2,002110958E0;7,171558142E-1;-2,229505539E0
1,048465353E1;-6,927211881E-1;3,950771093E-1;-1,347263336E0
1,058465353E1;-1,000902653E0;-8,813258410E-1;-1,831221342E0
1,068465353E1;4,375322461E-1;-1,811673641E0;3,481931984E-2
1,078465353E1;-2,666426897E-1;-1,063058257E0;-1,808161139E-1
1,088465353E1;6,461427212E-1;-4,909829497E-1;5,193881989E-1
1,098465353E1;9,767735004E-1;8,103127480E-1;-3,619376570E-2
1,108465353E1;1,540602207E0;1,120937690E-1;2,326480389E0
1,118465353E1;1,229213595E0;-1,524108797E-1;9,874636531E-1
1,128465353E1;5,519167781E-1;5,487096906E-1;1,179733515E0
1,138465353E1;3,938553631E-1;5,448917747E-1;7,693848014E-1
1,148465353E1;-1,408960700E0;1,930334121E-1;-1,205695271E0
1,158465353E1;-1,965764403E0;1,289536476E0;-2,783865690E0
1,168465353E1;-6,191119552E-1;-9,544769675E-2;-2,041664362E0
1,178465353E1;-1,358106136E0;-2,504700184E0;-1,350012183E0
1,188465353E1;9,376781583E-1;-1,888184428E0;5,807801485E-1
1,198465353E1;-2,423607856E-1;-9,767735004E-1;-6,546948552E-1
1,208465353E1;7,906123400E-1;1,252273768E-1;1,708895564E-1
1,218465353E1;1,159116745E0;8,700248003E-1;7,399105430E-1
1,228465353E1;1,425301313E0;-8,475755155E-2;1,517083883E0
1,238465353E1;1,188743711E0;-1,751656085E-1;5,737552047E-1
1,248465353E1;4,951062799E-1;-3,636175394E-1;1,513113260E0
1,258465353E1;3,790418804E-1;7,322747111E-1;-1,777617931E-1
1,268465353E1;-1,480126500E0;-9,224065393E-2;-1,128115416E0
1,278465353E1;-8,917105198E-1;3,027600765E0;-1,868789554E0
1,288465353E1;-6,965391040E-1;-4,092797264E-2;-2,322967768E0
1,298465353E1;-2,886338234E-1;-2,011121035E0;-2,959642112E-1
1,308465353E1;5,378668308E-1;-2,021964073E0;3,335324228E-1
1,318465353E1;-7,313584089E-1;-1,597718000E0;-3,627012372E-1
1,328465353E1;6,685920358E-1;2,463314086E-1;-1,556179225E-1
1,338465353E1;2,165211916E0;1,949118257E0;2,209194183E0
1,348465353E1;9,298896194E-1;-2,971859276E-1;1,374141335E0
1,358465353E1;1,452942967E0;9,040805697E-1;7,458664775E-1
1,368465353E1;5,253441334E-1;-7,406741381E-2;1,427592039E0
1,378465353E1;3,129157126E-1;8,701775670E-1;-5,818491429E-2
1,388465353E1;-1,784031987E0;1,087340117E-1;-1,388802171E0
1,398465353E1;-9,637926221E-1;2,827084303E0;-1,829846859E0
1,408465353E1;-7,156286240E-1;-1,750128865E-1;-2,653445959E0
1,418465353E1;-1,398423314E0;-2,523942471E0;-8,130616546E-1
1,428465353E1;-1,197906733E0;-1,196074128E0;-1,058476806E0
1,438465353E1;-7,916813493E-1;-2,062739134E0;-5,645921826E-1
1,448465353E1;2,200183868E0;-4,584543705E-1;3,894265890E-1
1,458465353E1;2,168266296E0;2,018604279E0;1,444696307E0
1,468465353E1;1,330769897E0;6,012440920E-1;1,149648428E0
1,478465353E1;1,358869791E0;1,366505504E0;4,327980280E-1
1,488465353E1;1,099557400E0;1,896431208E0;-8,827003092E-2
1,498465353E1;2,406809032E-1;6,884451509E-1;-1,353066564E-1
1,508465353E1;1,521054506E-1;7,693848014E-1;6,556110978E-1
1,518465353E1;5,128213763E-1;8,376489878E-1;1,045190454E0
1,528465353E1;2,910772860E-1;6,175847650E-1;5,071708560E-1
1,538465353E1;-1,345430762E-1;6,585127115E-1;-8,181012869E-1
1,548465353E1;-4,773911834E-1;1,007774949E0;-1,352455616E0
1,558465353E1;-3,486513495E-1;1,200044751E0;-1,890780687E0
1,568465353E1;-1,555110216E0;-2,025323629E0;-2,220189810E0
1,578465353E1;-1,627344966E0;-2,100918293E0;-1,661400795E0
1,588465353E1;7,864890248E-2;-1,492191076E0;-2,112066597E-1
1,598465353E1;2,341141105E-1;-1,519832730E0;1,359175146E-1
1,608465353E1;1,333060622E0;8,093964309E-2;9,642508030E-1
1,618465353E1;1,900401831E0;6,650795341E-1;1,047328472E0
1,628465353E1;1,593136549E0;1,203862667E0;1,293965340E0
1,638465353E1;1,401324868E0;1,675908804E0;1,874439955E0
1,648465353E1;-7,483099401E-2;-6,520986557E-1;7,425066829E-1
1,658465353E1;2,747366428E-1;-6,656904221E-1;7,872526050E-1
1,668465353E1;7,930558324E-1;1,101084575E-1;8,362745047E-1
1,678465353E1;4,240931869E-1;5,584835410E-1;9,117164016E-1
1,688465353E1;-2,186897546E-1;-2,521346211E-1;-6,843217611E-1
1,698465353E1;-1,514640331E0;8,048149943E-2;-1,812742591E0
1,708465353E1;-3,466660380E-1;1,245859623E0;-1,587791443E0
1,718465353E1;-7,667886019E-1;-4,341724813E-1;-1,649488926E0
1,728465353E1;-2,916881442E-1;-1,610393524E0;-2,938261926E-1
1,738465353E1;-2,516764700E-1;-1,900707245E0;1,481348183E-2
1,748465353E1;-5,218316317E-1;-1,452179432E0;-8,659014851E-2
1,758465353E1;7,696902156E-1;7,835873961E-1;3,740022480E-1
1,768465353E1;1,507310033E0;1,379181027E0;1,902234316E0
1,778465353E1;7,386888266E-1;-3,981314301E-1;5,899431109E-1
1,788465353E1;1,300073981E0;6,356052756E-1;2,383901626E-1
1,798465353E1;4,871650338E-1;2,397646159E-1;9,813550115E-1
1,808465353E1;1,766927689E-1;3,375030458E-1;3,897320330E-1
1,818465353E1;-1,767385840E0;1,863138936E-2;-1,820073009E0
1,828465353E1;-1,566869378E0;1,425454021E0;-2,190868139E0
1,838465353E1;-8,616254330E-1;-1,576032341E-1;-1,991420746E0
1,848465353E1;-9,656252265E-1;-2,004707098E0;-1,097877502E0
1,858465353E1;4,660901725E-1;-6,123924255E-1;2,858849466E-1
1,868465353E1;-1,249219403E-1;-4,082106948E-1;-8,029823899E-1
1,878465353E1;-2,582432926E-1;-4,237877727E-1;1,817324013E-2
1,888465353E1;6,200282276E-2;-3,057380617E-1;6,751587987E-1
1,898465353E1;6,772968173E-1;1,359175146E-2;1,232726097E0
1,908465353E1;8,953757286E-1;1,224784851E-1;9,863946438E-1
1,918465353E1;2,037235647E-1;9,294314981E-1;-1,620320082E-1
1,928465353E1;1,223257631E-1;6,640105247E-1;-2,952006161E-1
1,938465353E1;-2,025018334E-1;9,431759119E-1;1,400408596E-1
1,948465353E1;-1,974927306E0;5,172501206E-1;-1,199586630E0
1,958465353E1;-1,718058437E-1;1,502728462E-1;-6,878342628E-1
1,968465353E1;4,231768847E-1;-7,483099401E-2;3,123048544E-1
1,978465353E1;3,452915847E-1;-1,166141748E0;1,701717854E0
1,988465353E1;-5,879577994E-2;-1,571145415E0;1,704314053E-1
1,998465353E1;1,296561509E-1;-1,269072533E0;2,962696552E-1
2,008465353E1;3,330742717E-1;9,640980959E-1;2,122756653E-2
2,018465353E1;6,898195744E-1;5,455026627E-1;2,429716438E-1
2,028465353E1;-5,421429127E-2;1,342681766E0;-1,957823038E-1
2,038465353E1;-1,284191489E0;8,663596511E-1;-6,550002694E-1
2,048465353E1;-8,237518072E-1;-3,685044646E-1;-1,814575195E0
2,058465353E1;2,666426897E-1;1,905899495E-1;2,538145185E-1
2,068465353E1;1,221272349E0;-8,704829812E-1;1,795180202E0
2,078465353E1;4,674646258E-1;-2,072818518E0;3,449861407E-1
2,088465353E1;8,704829961E-2;-2,578309536E0;3,895792961E-1
2,098465353E1;2,747366428E-1;-4,795292318E-1;9,346238524E-2
2,108465353E1;7,391469479E-1;2,501493096E-1;3,937026560E-1
2,118465353E1;4,034765065E-1;1,121548533E0;2,021963894E-1
2,128465353E1;-4,903720617E-1;8,318457603E-1;-3,254384696E-1
2,138465353E1;-9,912815690E-1;2,190868139E0;-1,350164890E0
2,148465353E1;-4,575380683E-1;-7,709119320E-1;-4,253149331E-1
2,158465353E1;1,088561893E0;1,285871267E-1;8,431467414E-1
2,168465353E1;1,255328059E-1;-1,606422901E0;1,287703991E0
2,178465353E1;3,144428730E-1;-1,071304917E0;-7,819075137E-2
2,188465353E1;-8,721628785E-1;-3,000875413E-1;-1,218676195E-1
2,198465353E1;6,123924255E-1;1,377806544E0;-2,535090782E-2
2,208465353E1;8,547531962E-1;7,237225771E-1;5,926920176E-1
2,218465353E1;2,364048511E-1;1,342376351E0;1,464549452E-1
2,228465353E1;-7,052439451E-1;1,345888853E0;-3,559817076E-1
2,238465353E1;-1,781283021E0;1,445459843E0;-2,060295820E0
2,248465353E1;3,094032407E-1;-3,469714522E-1;-6,284276247E-1
2,258465353E1;1,866040587E0;-1,365589261E0;1,400408626E0
2,268465353E1;5,644394755E-1;-2,190868139E0;1,037401915E0
2,278465353E1;3,452915847E-1;8,794932365E-1;-3,524692357E-1
2,288465353E1;-1,750128865E-1;-1,360702276E0;1,020144969E-1
2,298465353E1;-3,170390725E-1;-8,956811428E-1;4,964807332E-1
2,308465353E1;9,410378933E-1;2,294257164E0;5,458080769E-1
2,318465353E1;-1,977218032E0;1,527621269E0;-2,165669918E0
2,328465353E1;-2,394897223E0;-1,623221636E0;-1,365131140E0
2,338465353E1;2,337475777E0;-2,112066597E-1;1,718516707E0
2,348465353E1;7,153232098E-1;-1,256549835E0;1,114065528E0
2,358465353E1;-9,315694682E-3;-1,366658211E0;2,046398632E-2
2,368465353E1;3,171917796E-1;4,428773187E-3;-6,354525685E-1
2,378465353E1;-1,088867337E-1;1,173624873E0;-9,376781434E-2
2,388465353E1;-1,103528023E0;1,948965549E0;-1,239140153E0
2,398465353E1;-1,092379808E0;-3,611740768E-1;-8,029823899E-1
2,408465353E1;1,487151384E0;-5,946773291E-1;2,154827118E0
2,418465353E1;4,692972302E-1;-1,337642193E0;1,329242826E0
2,428465353E1;1,308778822E-1;-8,480336666E-1;-7,254024595E-2
2,438465353E1;3,802636266E-1;1,641700417E-1;-4,819726646E-1
2,448465353E1;3,069597855E-2;4,025602043E-1;3,550654352E-1
2,458465353E1;-1,073595643E0;1,161407590E0;-7,425066829E-1
2,468465353E1;-3,704897761E-1;-6,969972253E-1;-1,079856992E0
2,478465353E1;1,342834473E0;-7,435756922E-1;2,695443034E-1
2,488465353E1;5,131268129E-2;1,414152980E-1;7,683157325E-1
2,498465353E1;-2,012801021E-1;-4,024074674E-1;-5,745187402E-1
2,508465353E1;6,948592067E-1;5,685628057E-1;-2,530509233E-1
2,518465353E1;-1,829541475E-1;2,692388594E-1;1,040761709E0
2,528465353E1;1,500590444E0;7,684684992E-1;5,954409242E-1
2,538465353E1;1,028391600E0;1,209055066E0;7,116580009E-1
2,548465353E1;4,570799172E-1;6,916521788E-1;7,507534027E-1
2,558465353E1;1,826487035E-1;2,547308207E-1;4,480696619E-1
2,568465353E1;-1,899790883E0;1,724930763E0;-2,237599373E0
2,578465353E1;-7,912232280E-1;2,114051819E0;-1,467756510E0
2,588465353E1;-1,009454846E0;-1,349248648E0;-1,534493446E0
2,598465353E1;-7,907650471E-1;-2,139097452E0;-5,986479521E-1
2,608465353E1;5,659666657E-1;-1,690569520E0;-4,334088862E-1
2,618465353E1;-8,414669037E-1;-1,308167934E0;-5,960517526E-1
2,628465353E1;7,840455174E-1;7,788531948E-3;-2,464841306E-1
2,638465353E1;1,052520871E0;1,550681472E0;9,639453292E-1
2,648465353E1;1,461036921E0;7,286095023E-1;6,207917929E-1
2,658465353E1;1,038470864E0;8,399397135E-1;4,341724813E-1
2,668465353E1;7,707592249E-1;6,676757336E-1;8,889616728E-1
2,678465353E1;1,679879427E-1;2,808452845E-1;1,435533315E-1
2,688465353E1;-1,493565589E-1;9,479101300E-1;-7,580837607E-1
2,698465353E1;-1,564273119E0;2,107332468E0;-1,786933541E0
2,708465353E1;-6,638578176E-1;1,238529325E0;-1,266934514E0
2,718465353E1;-6,131559610E-1;-1,850768924E0;-8,112290502E-1
2,728465353E1;6,090326309E-1;-1,467298269E0;2,764165215E-2
2,738465353E1;-1,748601794E-1;-1,007316828E0;-3,342960179E-1
2,748465353E1;-6,716463566E-1;-1,539991260E0;-4,844161272E-1
2,758465353E1;6,243042946E-1;-3,026837409E-1;-2,906191349E-1
2,768465353E1;1,408349872E0;1,323439598E0;1,950034618E0
2,778465353E1;7,787004709E-1;-7,956519723E-1;3,691153228E-1
2,788465353E1;1,368643522E0;6,892086864E-1;4,764748737E-2
2,798465353E1;6,556110978E-1;-1,052215397E-1;9,288206100E-1
2,808465353E1;4,428773001E-2;3,152064681E-1;2,417499274E-1
2,818465353E1;-2,430785418E0;9,651671052E-1;-2,079538107E0
2,828465353E1;-1,277930140E0;2,185981274E0;-1,554193854E0
2,838465353E1;-1,009607553E0;-1,076650023E-1;-1,278235555E0
2,848465353E1;-5,010622144E-1;-1,247234106E0;-3,941608071E-1
2,858465353E1;6,075055003E-1;-1,038929105E0;1,318552613E0
2,868465353E1;9,590584040E-2;-9,162978269E-3;-7,686212063E-1
2,878465353E1;4,998404980E-1;-5,662720799E-1;1,033889428E-1
2,888465353E1;3,016147017E-1;-1,267545391E-2;-1,116356254E-1
2,898465353E1;3,367394805E-1;1,379028261E-1;1,533271819E-1
2,908465353E1;5,274821520E-1;6,834055185E-1;3,874412775E-1
2,918465353E1;4,665483236E-1;1,074206591E0;2,354885489E-1
2,928465353E1;2,277000248E-1;9,615018964E-1;1,183551401E-1
2,938465353E1;1,560760736E-1;6,554583907E-1;2,868012190E-1
2,948465353E1;3,272710443E-1;2,444988191E-1;5,163338780E-1
2,958465353E1;1,343903542E-1;4,395175576E-1;5,791002512E-1
2,968465353E1;-5,879577994E-2;2,900082767E-1;2,938261926E-1
2,978465353E1;-3,054326226E-4;-2,672535367E-2;2,222022265E-1
2,988465353E1;-1,233947754E0;1,019992232E0;-1,112996459E0
2,998465353E1;-5,285511613E-1;2,321135283E0;-1,755779386E0
3,008465353E1;-4,749477208E-1;-1,524566889E0;-1,793347597E0
3,018465353E1;-6,316346526E-1;-2,182163477E0;-1,253800869E0
3,028465353E1;-9,010262042E-2;-1,937664509E0;-5,106833577E-1
3,038465353E1;-4,369213581E-1;-2,223091364E0;-7,186829448E-1
3,048465353E1;1,057713151E0;-3,727805018E-1;-1,299615800E-1
3,058465353E1;1,403157473E0;5,656611919E-1;7,289149761E-1
3,068465353E1;1,221425056E0;1,005026102E0;1,236849427E0
3,078465353E1;8,381071091E-1;7,351763248E-1;1,178053617E0
3,088465353E1;1,079093456E0;9,691377282E-1;2,234239578E-1
3,098465353E1;1,021824837E0;9,679159522E-1;5,904012322E-1
3,108465353E1;3,152064681E-1;-5,329799280E-2;3,022255898E-1
3,118465353E1;2,735149264E-1;1,519374609E0;-4,447098970E-1
3,128465353E1;-2,152994633E0;5,771149397E-1;-2,138486624E0
3,138465353E1;-1,254564524E0;3,453373909E0;-1,631162882E0
3,148465353E1;-1,203709960E0;-2,177123785E0;-1,099862933E0
3,158465353E1;3,744603992E-1;-1,891544223E0;1,823432744E-1
3,168465353E1;-2,964223623E-1;-9,611964822E-1;-5,954409242E-1
3,178465353E1;7,895433307E-1;1,297783256E0;-1,572978050E-1
3,188465353E1;1,060462117E0;2,596788168E0;1,069166899E0
3,198465353E1;1,353677392E0;4,902193546E-1;1,492191076E0
3,208465353E1;1,061072946E0;3,646865487E-1;4,184426963E-1
3,218465353E1;2,014328092E-1;1,244332552E0;8,733845949E-1
3,228465353E1;5,018258095E-1;-9,346238524E-2;8,917105198E-1
3,238465353E1;-1,128115416E0;-6,217080951E-1;-5,731443167E-1
3,248465353E1;-2,080148935E0;5,890268087E-1;-2,274709463E0
3,258465353E1;-5,251913667E-1;-7,348709106E-1;-2,235003233E0
3,268465353E1;-1,229213595E0;-3,281415462E0;-1,595274568E0
3,278465353E1;5,404630303E-1;-2,067778826E0;3,477350473E-1
3,288465353E1;-6,215553731E-2;-1,207222462E0;-4,660901725E-1
3,298465353E1;3,512475267E-2;1,817324013E-2;-4,992296100E-1
3,308465353E1;1,196532249E0;1,515556693E0;3,906483352E-1
3,318465353E1;1,289994717E0;5,543602258E-2;1,781893969E0
3,328465353E1;1,074359298E0;-4,108068720E-2;7,976372838E-1
3,338465353E1;1,205237150E0;1,454012036E0;5,309945941E-1
3,348465353E1;-1,252273750E-2;-4,654793143E-1;1,147968531E0
3,358465353E1;-4,618141353E-1;9,666942805E-2;-6,959282160E-1
3,368465353E1;-2,094962358E0;9,445503950E-1;-1,919643998E0
3,378465353E1;-5,685628057E-1;3,970624134E-2;-1,488831282E0
3,388465353E1;-1,264338374E0;-7,438811660E-1;-1,552666783E0
3,398465353E1;6,007859707E-1;-1,625206947E0;2,101376504E-1
3,408465353E1;-1,034194827E0;-1,142776132E0;-5,613851547E-1
3,418465353E1;3,769038618E-1;-2,319760770E-1;1,237002090E-1
3,428465353E1;2,199725866E0;2,615266800E0;1,616044044E0
3,438465353E1;1,753030539E0;1,661858916E0;2,687654257E0
3,448465353E1;1,112843752E0;7,315111160E-1;1,685988009E-1
3,458465353E1;1,462258697E0;1,194088817E0;3,833179474E-1
3,468465353E1;2,616030276E-1;5,897904038E-1;2,220495194E-1
3,478465353E1;-4,790710807E-1;4,114177525E-1;-6,137668490E-1
3,488465353E1;-1,607491851E0;6,867652535E-1;-1,272126913E0
3,498465353E1;-5,403103232E-1;-1,443169117E-1;-2,009288549E0
3,508465353E1;-2,796235681E-1;-2,312277555E0;-7,971791625E-1
3,518465353E1;7,047857642E-1;-1,719585657E0;8,552113175E-2
3,528465353E1;-8,662069440E-1;-1,445765376E0;-5,529857874E-1
3,538465353E1;7,276932001E-1;-2,981022298E-1;3,897320330E-1
3,548465353E1;1,864207983E0;2,090533495E0;1,159116745E0
3,558465353E1;1,404073715E0;1,096045017E0;1,821447492E0
3,568465353E1;1,690416813E0;1,064738154E0;1,379028261E-1
3,578465353E1;8,906415105E-1;6,737843752E-1;1,100168347E0
3,588465353E1;4,715879560E-1;2,884811163E-1;2,225076705E-1
3,598465353E1;-3,350595832E-1;7,360926270E-2;-3,675881624E-1
3,608465353E1;-1,787391663E0;2,037235498E0;-1,801288843E0
3,618465353E1;-8,373435140E-1;7,452555746E-2;-1,602299571E0
3,628465353E1;-4,010330439E-1;-2,140319109E0;-8,353582025E-1
3,638465353E1;8,350527883E-1;-1,263880134E0;1,481348183E-2
3,648465353E1;-6,760751009E-1;-9,616546035E-1;-6,913467646E-1
3,658465353E1;6,239988208E-1;4,373795092E-1;2,671008408E-1
3,668465353E1;1,681406617E0;1,792278647E0;8,074111342E-1
3,678465353E1;7,567093372E-1;-1,552972198E0;1,463174939E0
3,688465353E1;1,368338108E0;6,349944472E-1;5,076290369E-1
3,698465353E1;4,784601927E-1;-7,162395120E-2;1,349706769E0
3,708465353E1;3,272710443E-1;5,992587805E-1;3,440698385E-1
3,718465353E1;-2,237752199E0;2,199114859E-1;-1,707368374E0
3,728465353E1;-1,972636580E0;1,164309144E0;-1,906204939E0
3,738465353E1;-1,394758105E0;-1,853517890E0;-1,843591332E0
3,748465353E1;-6,843217611E-1;-2,826015234E0;-9,208793640E-1
3,758465353E1;7,422012836E-2;-1,358258843E0;1,163698286E-1
3,768465353E1;-7,478517890E-1;-1,167516232E0;-8,660541773E-1
3,778465353E1;3,944662213E-1;2,063197345E-1;7,406741381E-2
3,788465353E1;1,457371712E0;1,789224267E0;9,300423265E-1
3,798465353E1;8,032878041E-1;-1,255786180E0;1,536173344E0
3,808465353E1;1,354440928E0;4,440990388E-1;2,800817192E-1
3,818465353E1;5,470298529E-1;-2,596177394E-3;1,290605545E0
3,828465353E1;4,088215530E-1;8,448266387E-1;4,335615933E-1
3,838465353E1;-1,663844228E0;-2,061670274E-1;-1,459967971E0
3,848465353E1;-2,203849077E0;6,023131609E-1;-2,124894857E0
3,858465353E1;-9,860892296E-1;-7,470881939E-1;-2,037235498E0
3,868465353E1;-9,411906004E-1;-2,606561899E0;-1,270447016E0
3,878465353E1;8,271115422E-1;-1,523803353E0;3,193297982E-1
3,888465353E1;-1,360702366E-1;-7,609853745E-1;-5,644394755E-1
3,898465353E1;6,230825782E-1;3,827070892E-1;2,364048511E-1
3,908465353E1;1,681712031E0;2,250427485E0;1,414000273E0
3,918465353E1;1,113301873E0;8,080220222E-1;1,862528086E0
3,928465353E1;1,194852471E0;9,755517840E-1;3,133738637E-1
3,938465353E1;1,024268270E0;5,569564104E-1;8,576548100E-1
3,948465353E1;3,656028509E-1;7,408268452E-1;3,539963961E-1
3,958465353E1;-4,557054639E-1;-1,511891466E-2;-3,842342496E-1
3,968465353E1;-1,587638736E0;1,317025423E0;-1,683697343E0
3,978465353E1;-7,845036983E-1;-6,520986557E-2;-1,663233399E0
3,988465353E1;-5,813909769E-1;-2,323731422E0;-9,399688840E-1
3,998465353E1;6,844745278E-1;-1,543351054E0;-1,308778822E-1
4,008465353E1;-2,089159191E-1;-6,785185933E-1;-7,206682563E-1
4,018465353E1;-1,200350225E-1;-1,465771198E0;-1,143845171E-1
4,028465353E1;1,055117011E0;1,185994864E0;7,389942408E-1
4,038465353E1;1,582904577E0;2,339308500E0;1,989129901E0
4,048465353E1;1,072221279E0;1,159116775E-1;3,199406862E-1
4,058465353E1;1,090394497E0;9,442449808E-1;4,578435123E-1
4,068465353E1;5,612324476E-1;3,984368443E-1;9,421069026E-1
4,078465353E1;2,076941878E-1;6,009386778E-1;1,253800988E-1
4,088465353E1;-2,265088320E0;1,510822415E0;-2,345417023E0
4,098465353E1;-1,331075311E0;2,328923702E0;-1,637577057E0
4,108465353E1;-1,116508961E0;-1,919033170E0;-1,392009139E0
4,118465353E1;-2,089159191E-1;-2,052659988E0;-5,401576161E-1
4,128465353E1;6,001751125E-2;-9,263771176E-1;-1,452332139E-1
4,138465353E1;-6,441574097E-1;-9,567676783E-1;-4,915938079E-1
4,148465353E1;7,887797356E-1;2,535090744E-1;2,272418737E-1
4,158465353E1;1,141554475E0;1,570381880E0;2,120771408E0
4,168465353E1;6,676757336E-1;-1,089936256E0;1,318094492E0
4,178465353E1;1,243874311E0;1,118341565E0;6,113234162E-1
4,188465353E1;6,226243973E-1;-4,734205827E-2;1,287703991E0
4,198465353E1;-1,169806942E-1;1,214094684E-1;-1,913535446E-1
4,208465353E1;-2,117259026E0;-3,469714522E-1;-1,320079803E0
4,218465353E1;-3,724750876E-1;1,160949349E0;-1,516625643E0
4,228465353E1;-1,015258074E0;-1,626123309E0;-1,957212210E0
4,238465353E1;3,484986126E-1;-2,476753235E0;-2,901609838E-1
4,248465353E1;3,924809024E-2;-1,678810358E0;-3,210096955E-1
4,258465353E1;8,139779419E-2;-1,288925648E0;-1,740965992E-2
4,268465353E1;7,362453341E-1;6,934847832E-1;1,892155111E-1
4,278465353E1;1,695761919E0;2,492024660E0;2,408336163E0
4,288465353E1;7,286095023E-1;-1,376126647E0;1,534035325E0
4,298465353E1;1,089936256E0;1,167821646E0;5,885686874E-1
4,308465353E1;4,379903674E-1;1,198823079E-1;1,340543747E0
4,318465353E1;-1,130100712E-1;4,860960245E-1;-2,492330223E-1
4,328465353E1;-1,886810064E0;-1,611157060E-1;-1,693929315E0
4,338465353E1;-6,597344875E-1;2,251649380E0;-1,667509437E0
4,348465353E1;-8,585711122E-1;-7,606799603E-1;-2,084882975E0
4,358465353E1;1,898263693E-1;-1,707215667E0;-4,062253982E-2
4,368465353E1;-7,956519723E-2;-1,475545049E0;4,932736978E-2
4,378465353E1;4,856378734E-1;-7,628179789E-1;2,919935882E-1
4,388465353E1;7,990117669E-1;9,914342761E-1;5,598580241E-1
4,398465353E1;1,779450417E0;3,177110195E0;2,603660345E0
4,408465353E1;1,078177214E0;9,848675132E-1;2,666426897E-1
4,418465353E1;1,464702129E0;1,376279354E0;4,741841555E-1
4,428465353E1;3,149010241E-1;5,792529583E-1;4,063780904E-1
4,438465353E1;-9,193521738E-2;5,338962078E-1;-4,573853612E-1
4,448465353E1;-1,617876649E0;1,022588372E0;-2,075414658E0
4,458465353E1;-6,400340796E-1;1,049619198E0;-1,579392076E0
4,468465353E1;-8,965974450E-1;-2,850908041E0;-9,034696817E-1
4,478465353E1;5,418374538E-1;-1,733024716E0;3,741549700E-2
4,488465353E1;-5,835290551E-1;-6,241515875E-1;-7,493789196E-1
4,498465353E1;3,504839242E-1;-1,059240341E0;2,542726696E-1
4,508465353E1;1,694845676E0;2,229047298E0;1,153466344E0
4,518465353E1;1,333060622E0;2,565481424E0;2,587472439E0
4,528465353E1;1,126893640E0;7,706065178E-1;3,090978265E-1
4,538465353E1;1,375210404E0;1,052673578E0;4,854851663E-1
4,548465353E1;3,037527502E-1;6,151412725E-1;2,875648141E-1
4,558465353E1;-1,450804919E-1;4,654793143E-1;-5,552765131E-1
4,568465353E1;-1,645976424E0;7,057020664E-1;-1,995391369E0
4,578465353E1;-5,083925724E-1;7,221954465E-1;-1,709811807E0
4,588465353E1;-7,012733221E-1;-2,387261391E0;-7,357872128E-1
4,598465353E1;5,444336534E-1;-1,230435371E0;2,220495194E-1
4,608465353E1;-6,404922009E-1;-8,607091308E-1;-5,615378618E-1
4,618465353E1;5,109887719E-1;-9,958630800E-1;1,780672222E-1
4,628465353E1;1,260062337E0;9,758572578E-1;7,900014520E-1
4,638465353E1;1,479515672E0;2,496758938E0;2,290286541E0
4,648465353E1;8,827002645E-1;8,491026759E-1;2,377792895E-1
4,658465353E1;3,388774991E-1;-3,153591752E-1;1,233489633E0
4,668465353E1;3,165809214E-1;4,729624093E-1;4,804455042E-1
4,678465353E1;-1,833664775E0;-1,279762685E-1;-1,642769337E0
4,688465353E1;-1,935526490E0;4,245513380E-1;-1,997682095E0
4,698465353E1;-1,065043569E0;-9,610437751E-1;-1,947285652E0
4,708465353E1;-8,735373020E-1;-2,588388681E0;-9,958630800E-1
4,718465353E1;4,949535728E-1;-1,801136136E0;5,343543887E-1
4,728465353E1;-4,889976382E-1;-9,274461865E-1;-7,267768979E-1
4,738465353E1;5,022839308E-1;6,385068893E-1;-1,785253733E-1
4,748465353E1;1,317789078E0;1,811520934E0;1,094212413E0
4,758465353E1;1,019228697E0;-5,112941861E-1;1,444238186E0
4,768465353E1;1,028544307E0;4,717406929E-1;2,138028294E-1
4,778465353E1;3,937026560E-1;1,725694388E-1;1,261131287E0
4,788465353E1;5,180137157E-1;-7,162395120E-2;8,539896011E-1
4,798465353E1;-1,220508814E0;-4,683809280E-1;-1,041067123E0
4,808465353E1;-2,177123785E0;7,663304210E-1;-2,504700184E0
4,818465353E1;-4,419609904E-1;-1,111621976E0;-2,143373489E0
4,828465353E1;-9,726501703E-1;-1,910022855E0;-1,168432474E0
4,838465353E1;9,202684760E-1;-1,655597568E0;3,652974069E-1
4,848465353E1;-4,485278130E-1;-6,911939979E-1;-8,318457603E-1
4,858465353E1;7,360926270E-1;4,721988440E-1;5,184718966E-1
4,868465353E1;1,032362223E0;6,618725061E-1;6,438519955E-1
4,878465353E1;1,601077795E0;3,095559776E-1;1,711033583E0
4,888465353E1;1,042288780E0;4,069889784E-1;4,993823469E-1
4,898465353E1;5,114469528E-1;5,270239711E-1;1,045953989E0
4,908465353E1;2,446515262E-1;6,267477274E-1;-4,871650413E-2
4,918465353E1;-1,451721311E0;-5,222898126E-1;-1,111316562E0
4,928465353E1;-1,354135513E0;2,636036158E0;-1,710269928E0
4,938465353E1;-6,006332636E-1;-1,324203134E0;-2,240348339E0
4,948465353E1;1,623374373E-1;-2,102750778E0;-3,940080702E-1
4,958465353E1;1,119257808E0;-1,678810358E0;3,880521357E-1
4,968465353E1;-5,934556127E-1;-1,012509108E0;-4,045455158E-1
4,978465353E1;6,884451509E-1;8,631525636E-1;5,293147564E-1
4,988465353E1;1,668731093E0;2,503020287E0;1,800678015E0
4,998465353E1;1,487915039E0;7,403686643E-1;2,139097452E0
5,008465353E1;1,125671983E0;1,399644971E0;2,330450863E-1
5,018465353E1;8,691084981E-1;9,546296597E-1;9,146180153E-1
5,028465353E1;3,408628106E-1;7,469354868E-1;4,841107130E-2
5,038465353E1;-6,676757336E-1;-7,483099122E-3;-8,155050874E-1
5,048465353E1;-1,682475567E0;2,152078152E0;-1,802510619E0
5,058465353E1;-5,723807216E-1;-1,038165450E0;-1,613142371E0
5,068465353E1;-3,211624026E-1;-2,109317780E0;-6,108652353E-1
5,078465353E1;1,012967348E0;-1,514793038E0;2,486221492E-1
5,088465353E1;-7,312057018E-1;-7,735081315E-1;-6,930266023E-1
5,098465353E1;7,053966522E-1;-9,051495790E-1;4,173736870E-1
5,108465353E1;1,313513041E0;1,943773150E0;7,933612466E-1
5,118465353E1;1,071915746E0;1,874287248E0;2,423913240E0
5,128465353E1;1,130711555E0;8,678867817E-1;8,872817457E-2
5,138465353E1;1,061836481E0;1,061225653E0;4,547891617E-1
5,148465353E1;2,637410760E-1;2,266310006E-1;6,386595964E-1
5,158465353E1;-1,078177214E0;-2,273945808E-1;-1,195463300E0
5,168465353E1;-2,198045969E0;1,176373720E0;-1,772120118E0
5,178465353E1;-6,510296464E-1;-4,294382632E-1;-1,777617812E0
5,188465353E1;-1,067181587E0;-1,486540556E0;-1,173472166E0
5,198465353E1;9,024006724E-1;-1,058171272E0;3,481931984E-1
5,208465353E1;1,641700417E-1;-9,359982610E-1;1,007927675E-2
5,218465353E1;3,686571717E-1;-1,080009699E0;1,441642046E-1
5,228465353E1;7,009678483E-1;4,526511431E-1;1,414152980E-1
5,238465353E1;1,004262447E0;9,917397499E-1;2,392911911E0
5,248465353E1;1,073901057E0;-3,277291954E-1;8,620835543E-1
5,258465353E1;1,007011414E0;8,277224302E-1;4,668537676E-1
5,268465353E1;6,765332818E-1;4,977024496E-1;9,899071455E-1
5,278465353E1;1,941024363E-1;5,664247870E-1;9,651670605E-2
5,288465353E1;-8,425359130E-1;-3,671300113E-1;-5,575672388E-1
5,298465353E1;-1,439198494E0;1,768607616E0;-1,740355134E0
5,308465353E1;-3,555235863E-1;-9,500481486E-1;-1,810604572E0
5,318465353E1;-4,795292318E-1;-2,358703375E0;-5,870414972E-1
5,328465353E1;7,018841505E-1;-1,581835508E0;2,984076738E-1
5,338465353E1;-7,073819637E-1;-8,743008971E-1;-5,328271985E-1
5,348465353E1;8,005388975E-1;-3,924809024E-2;3,958406746E-1
5,358465353E1;1,859321117E0;2,421775341E0;1,496314406E0
5,368465353E1;1,339932919E0;1,282358885E0;2,680782080E0
5,378465353E1;1,361465931E0;1,202793717E0;2,177734673E-1
5,388465353E1;9,786061049E-1;1,371850610E0;7,470881939E-1
5,398465353E1;2,215913683E-1;7,330383062E-1;-8,155050874E-2
5,408465353E1;-2,436283350E0;1,838704348E-1;-2,905580521E0
5,418465353E1;-1,157131433E0;2,627484083E0;-1,819614887E0
5,428465353E1;-1,058476806E0;-2,264172077E0;-1,219287038E0
5,438465353E1;2,550362423E-2;-1,759902716E0;1,634064503E-2
5,448465353E1;-4,495968223E-1;-8,487972617E-1;-8,158105612E-1
5,458465353E1;-6,059783101E-1;-9,109528065E-1;-3,828597963E-1
5,468465353E1;1,178817153E0;1,721876383E0;4,557054639E-1
5,478465353E1;2,258979559E0;2,989727259E0;2,282803535E0
5,488465353E1;1,353524685E0;5,012149215E-1;6,612616181E-1
5,498465353E1;1,418581843E0;1,604284883E0;4,016439021E-1
5,508465353E1;2,933680415E-1;6,951646209E-1;5,302310586E-1
5,518465353E1;9,285151958E-2;6,667594314E-1;-5,319108963E-1
5,528465353E1;-1,940871596E0;9,563095570E-1;-2,195449591E0
5,538465353E1;-1,060614824E0;1,562440634E0;-1,431868076E0
5,548465353E1;-1,032973170E0;-2,475989580E0;-8,718574047E-1
5,558465353E1;4,123340547E-1;-1,477988482E0;4,276056774E-3
5,568465353E1;-5,702427030E-1;-7,464773059E-1;-6,676757336E-1
5,578465353E1;5,222898126E-1;-1,146135926E0;1,298088580E-1
5,588465353E1;1,245859623E0;2,364812136E0;1,158200502E0
5,598465353E1;1,735773563E0;2,359161615E0;2,669633865E0
5,608465353E1;8,706356883E-1;1,302670091E-1;2,611449063E-1
5,618465353E1;1,222646832E0;1,665371418E0;4,108068645E-1
5,628465353E1;7,254024595E-2;2,035708427E-1;7,044803500E-1
5,638465353E1;1,107193232E-1;6,015495658E-1;-5,132794976E-1
5,648465353E1;-1,576185107E0;1,387733102E0;-2,572353601E0
5,658465353E1;-1,204015374E0;-9,082038999E-1;-1,907579422E0
5,668465353E1;-9,619600177E-1;-2,615877628E0;-7,483099103E-1
5,678465353E1;-2,290744567E-3;-1,237460256E0;6,032294407E-2
5,688465353E1;-8,642216325E-1;-8,237518072E-1;-5,734497309E-1
5,698465353E1;9,752463698E-1;5,607742667E-1;7,192938030E-2
5,708465353E1;1,950187325E0;2,379472733E0;1,372614264E0
5,718465353E1;1,346041560E0;-3,623957932E-1;1,194699645E0
5,728465353E1;1,312291265E0;9,327912331E-1;4,243986309E-1
5,738465353E1;1,356120855E-1;-7,334964275E-1;1,252121091E0
5,748465353E1;2,869539559E-1;7,220427394E-1;5,345070735E-2
5,758465353E1;-2,228131056E0;4,563163519E-1;-2,106263399E0
5,768465353E1;-1,675450683E0;1,633300900E0;-1,776548862E0
5,778465353E1;-1,382235289E0;-1,095128655E0;-1,499368787E0
5,788465353E1;-7,510588169E-1;-2,327396631E0;-7,774787545E-1
5,798465353E1;-3,497203588E-1;-7,768678665E-1;-1,727221459E-1
5,808465353E1;-9,589056969E-1;-1,264185667E0;-7,197519541E-1
5,818465353E1;6,514877677E-1;6,200281978E-1;-2,244929783E-2
5,828465353E1;1,783421040E0;2,169029713E0;1,904525161E0
5,838465353E1;1,388343930E0;-3,058907688E-1;9,666942358E-1
5,848465353E1;1,259145975E0;1,475545049E0;2,176207453E-1
5,858465353E1;3,075706363E-1;-7,086037099E-2;9,537133574E-1
5,868465353E1;3,856086731E-1;8,988882303E-1;-8,216137439E-2
5,878465353E1;-2,316095591E0;1,463327646E0;-2,707813025E0
5,888465353E1;-7,370089293E-1;-1,740965962E0;-2,195602417E0
5,898465353E1;-1,307862520E0;-2,149176598E0;-1,272890449E0
5,908465353E1;1,122312188E0;-1,702939630E0;3,875939846E-1
5,918465353E1;-5,497787148E-2;-7,226535678E-1;-2,909245789E-1
5,928465353E1;7,754934430E-1;1,945605874E-1;4,111123085E-1
5,938465353E1;4,893030524E-1;1,531744599E-1;1,246165112E-1
5,948465353E1;1,555873752E0;5,024366379E-1;2,125811100E0
5,958465353E1;1,544878244E0;-1,411098689E-1;5,120577812E-1
5,968465353E1;7,252497673E-1;7,223481536E-1;1,002735257E0
5,978465353E1;5,676465034E-1;-4,842634201E-1;7,632761002E-1
5,988465353E1;-1,519985437E0;-2,403754741E-1;-1,307862520E0
5,998465353E1;-2,260506868E0;1,363909364E0;-2,369088173E0
6,008465353E1;-8,619308472E-1;-1,286787629E0;-2,254398108E0
6,018465353E1;-1,037707329E0;-2,510808945E0;-1,080620646E0
6,028465353E1;1,030987859E0;-1,924378276E0;5,178610086E-1
6,038465353E1;-4,654793143E-1;-9,944885969E-1;-9,037751555E-1
6,048465353E1;1,566869318E-1;1,262963861E-1;-2,602286041E-1
6,058465353E1;1,149801135E0;1,883297563E0;1,537547827E0
6,068465353E1;1,396438003E0;-3,521638215E-1;1,041677952E0
6,078465353E1;1,642769337E0;7,011205554E-1;2,299907655E-1
6,088465353E1;5,911648273E-1;9,010262787E-3;1,110705733E0
6,098465353E1;3,985895589E-2;8,393288255E-1;7,483099401E-2
6,108465353E1;-2,733774662E0;8,384125233E-1;-2,156659842E0
6,118465353E1;-1,490816593E0;2,535548925E0;-2,001041889E0
6,128465353E1;-1,079093456E0;-1,284191489E0;-1,358716965E0
6,138465353E1;9,166033268E-1;-1,679421306E0;2,965750694E-1
6,148465353E1;-9,972374886E-2;-1,348026872E0;-3,772092983E-2
6,158465353E1;3,043636084E-1;-4,886921961E-3;3,371976018E-1
6,168465353E1;1,009149432E0;1,035416603E0;-3,268129006E-2
6,178465353E1;1,439656615E0;1,052215397E-1;2,279749155E0
6,188465353E1;1,642311215E0;1,771509200E-1;6,554583907E-1
6,198465353E1;2,254092693E-1;-2,163990140E-1;1,470810771E0
6,208465353E1;3,170390725E-1;9,564622641E-1;3,208569586E-1
6,218465353E1;-2,328771114E0;2,556470931E-1;-1,987450123E0
6,228465353E1;-1,283733368E0;1,326646566E0;-2,265546560E0
6,238465353E1;-1,267392635E0;-9,705121517E-1;-1,781435728E0
6,248465353E1;-1,151481032E0;-2,359772444E0;-5,766568184E-1
6,258465353E1;3,530801237E-1;-1,320079803E0;3,512475267E-2
6,268465353E1;-6,630942225E-1;-3,426954150E-1;-6,461427212E-1
6,278465353E1;1,964237213E0;9,069821835E-1;-4,352414981E-2
6,288465353E1;1,097419381E0;6,747006774E-1;3,530801237E-1
6,298465353E1;1,431257248E0;2,329992771E0;2,521498919E0
6,308465353E1;1,091768861E0;1,857030392E-1;6,042984724E-1
6,318465353E1;1,147663116E0;1,053131700E0;4,940372705E-1
6,328465353E1;4,550946131E-2;-2,611449063E-1;8,648324609E-1
6,338465353E1;-7,003570199E-1;3,341432810E-1;-6,797403097E-1
6,348465353E1;-2,081370592E0;8,261952400E-1;-2,123520374E0
6,358465353E1;-6,664539576E-1;2,076941915E-2;-1,428355694E0
6,368465353E1;-1,178969979E0;-8,559749126E-1;-1,692402124E0
6,378465353E1;6,041457057E-1;-1,868789554E0;2,825251818E-1
6,388465353E1;-1,040914416E0;-1,096503139E0;-7,130324841E-1
6,398465353E1;1,197295904E0;-2,351831272E-2;5,728389025E-1
6,408465353E1;1,486693263E0;2,702009678E0;1,382540822E0
6,418465353E1;1,388496757E0;6,047565937E-1;2,644282818E0
6,428465353E1;1,291216373E0;1,406822681E0;1,820378453E-1
6,438465353E1;3,585779071E-1;9,540187716E-1;1,202946424E0
6,448465353E1;4,367686510E-1;8,190175891E-1;-2,477058619E-1
6,458465353E1;-1,539380431E0;-5,926920176E-1;-1,277471900E0
6,468465353E1;-1,665982246E0;2,257299900E0;-1,697136402E0
6,478465353E1;-7,316638231E-1;-1,335198760E0;-2,175291061E0
6,488465353E1;-2,611449063E-1;-2,165669918E0;-2,614503205E-1
6,498465353E1;7,313584089E-1;-1,895056725E0;4,471533597E-1
6,508465353E1;-3,222314268E-2;-7,895433307E-1;-4,948008433E-2
6,518465353E1;3,688098788E-1;5,494732857E-1;1,116356254E-1
6,528465353E1;1,535104394E0;1,228755474E0;2,783712864E0
6,538465353E1;1,522428870E0;-5,297728777E-1;1,349248648E0
6,548465353E1;8,546004891E-1;1,425759435E0;1,109331250E0
6,558465353E1;3,672827184E-1;4,596760869E-2;1,306946158E0
6,568465353E1;-1,311985850E0;-5,685628057E-1;-1,095739484E0
6,578465353E1;-2,240042925E0;7,368562222E-1;-2,785698175E0
6,588465353E1;-5,002986193E-1;-1,915978789E0;-2,176818371E0
6,598465353E1;-1,206917048E0;-2,466826677E0;-1,316720009E0
6,608465353E1;9,385944605E-1;-1,940871596E0;4,298964143E-1
6,618465353E1;-1,601994038E-1;-6,362161636E-1;-7,278459668E-1
6,628465353E1;-4,439463317E-1;1,974621862E-1;-6,105598211E-1
6,638465353E1;1,998598337E0;3,399006844E0;3,396716118E0
6,648465353E1;1,492038369E0;-9,129381180E-1;1,428813815E0
6,658465353E1;1,013272762E0;2,916881561E0;6,357579827E-1
6,668465353E1;2,959642112E-1;3,732386529E-1;1,579239368E0
6,678465353E1;-1,473559737E0;-3,628539443E-1;-1,216385365E0
6,688465353E1;-1,883144855E0;1,730275750E-1;-3,153286457E0
6,698465353E1;-8,720101118E-1;-2,328618288E0;-2,292730093E0
6,708465353E1;-1,411556840E0;-2,883131266E0;-1,149495721E0
6,718465353E1;1,091005325E0;-1,890627980E0;6,589708924E-1
6,728465353E1;-9,253081083E-1;-1,332755208E0;-8,526151776E-1
6,738465353E1;4,856378734E-1;5,287038684E-1;-2,185370475E-1
6,748465353E1;1,694234729E0;2,599537134E0;1,216690898E0
6,758465353E1;1,410487890E0;-7,446447611E-1;1,260215044E0
6,768465353E1;1,725541592E0;1,546710849E0;2,956587672E-1
6,778465353E1;5,326744914E-1;6,236934066E-1;1,167058110E0
6,788465353E1;4,957171381E-1;7,228062749E-1;-1,970040426E-2
6,798465353E1;-2,210110426E0;1,097572088E0;-2,649017096E0
6,808465353E1;-1,428966522E0;1,853976011E0;-1,875661731E0
6,818465353E1;-1,316720009E0;-2,558151007E0;-1,477224827E0
6,828465353E1;-4,941899776E-1;-3,065474510E0;-7,348709106E-1
6,838465353E1;-5,584835410E-1;-1,268614411E0;-8,226827979E-1
6,848465353E1;-2,767219543E-1;-8,364272118E-1;1,527163107E-2
6,858465353E1;1,940260768E0;2,079079866E0;8,254316449E-1
6,868465353E1;1,781893969E0;3,294701815E0;3,125797510E0
6,878465353E1;1,723556280E0;1,498910546E0;1,620320082E-1
6,888465353E1;4,114177525E-1;7,710646391E-1;1,179275393E0
6,898465353E1;6,288857460E-1;8,646797538E-1;7,941248268E-2
6,908465353E1;-1,974011064E0;7,342600226E-1;-2,238057613E0
6,918465353E1;-1,650252461E0;1,740202308E0;-1,735620856E0
6,928465353E1;-1,380402684E0;-2,057852268E0;-1,512349606E0
6,938465353E1;-8,318457603E-1;-2,591443062E0;-9,005680680E-1
6,948465353E1;-3,200933933E-1;-7,687739134E-1;-4,809036553E-1
6,958465353E1;-9,231700897E-1;-1,303586483E0;-4,912883639E-1
6,968465353E1;4,912883639E-1;6,736316681E-1;4,799873531E-1
6,978465353E1;2,083814144E0;1,917658687E0;9,242390990E-1
6,988465353E1;8,575021029E-1;-9,984592199E-1;1,211498499E0
6,998465353E1;1,253495455E0;9,191994667E-1;2,026545405E-1
7,008465353E1;-1,055269688E-1;-4,211915731E-1;1,566258430E0
7,018465353E1;3,717114925E-1;7,452555895E-1;1,204931661E-1
7,028465353E1;-2,185828447E0;1,032667756E0;-2,340530157E0
7,038465353E1;-1,663386106E0;9,404270649E-1;-1,871232986E0
7,048465353E1;-1,198212147E0;-1,501659513E0;-1,687209845E0
7,058465353E1;-8,544477820E-1;-2,787225485E0;-8,129089475E-1
7,068465353E1;2,321287990E-2;-4,407392740E-1;2,173153162E-1
7,078465353E1;-6,591235995E-1;-8,457429409E-1;-6,633996367E-1
7,088465353E1;4,059199691E-1;3,257438838E-1;-4,961752892E-1
7,098465353E1;2,302503824E0;2,492482901E0;1,836413622E0
7,108465353E1;1,340391040E0;-2,909245789E-1;1,044885039E0
7,118465353E1;1,426523089E0;1,357648015E0;6,673702598E-2
7,128465353E1;4,077525437E-1;2,006692290E-1;1,460120678E0
7,138465353E1;-4,532620013E-1;3,546072841E-1;-3,671300113E-1
7,148465353E1;-2,369699001E0;7,237225771E-1;-2,280207157E0
7,158465353E1;1,527163113E-4;7,299839705E-2;-1,997223973E0
7,168465353E1;-1,229824424E0;-2,273640394E0;-2,105499744E0
7,178465353E1;7,964155674E-1;-2,284177780E0;2,452623993E-1
7,188465353E1;-2,205223590E-1;-1,357037187E0;-2,748893499E-1
7,198465353E1;8,384125233E-1;-4,376849532E-1;1,508837193E-1
7,208465353E1;6,925684810E-1;5,577199459E-1;2,864958048E-1
7,218465353E1;1,728595972E0;2,364964724E0;2,540588617E0
7,228465353E1;1,421330690E0;3,724750876E-1;9,399688840E-1
7,238465353E1;9,957103729E-1;1,820531130E0;6,806566119E-1
7,248465353E1;3,054326226E-4;-1,707368344E-1;7,525860071E-1
7,258465353E1;-7,455610037E-1;5,772676691E-2;-9,668469429E-1
7,268465353E1;-2,174222231E0;1,439045787E0;-2,372905970E0
7,278465353E1;-6,076582074E-1;-1,333976984E0;-1,483944416E0
7,288465353E1;-1,326951981E0;-1,272279620E0;-1,441183805E0
7,298465353E1;8,112290502E-1;-1,654375792E0;2,451096773E-1
7,308465353E1;6,734789163E-2;-1,029613376E0;1,301143020E-1
7,318465353E1;1,970040351E-1;-1,220203280E0;2,498438805E-1
7,328465353E1;4,534147382E-1;2,449569702E-1;-7,788531948E-3
7,338465353E1;1,528690219E0;2,745228529E0;1,889406204E0
7,348465353E1;7,997753024E-1;-4,721988440E-1;1,283886075E0
7,358465353E1;1,175762892E0;1,249677539E0;7,956519723E-2
7,368465353E1;1,312138557E0;8,622363210E-1;4,358523488E-1
7,378465353E1;1,466076523E-1;5,227479339E-1;3,871358633E-1
7,388465353E1;-1,199739337E0;-8,520042896E-1;-1,195157886E0
7,398465353E1;-2,232254267E0;8,141306639E-1;-1,872607350E0
7,408465353E1;-6,803511381E-1;-1,363451242E0;-2,293798923E0
7,418465353E1;-1,242652655E0;-2,227520227E0;-1,410335183E0
7,428465353E1;9,187413454E-1;-1,917658687E0;1,942551434E-1
7,438465353E1;-2,764165215E-2;-9,120218158E-1;-3,831652105E-1
7,448465353E1;3,561344445E-1;-9,789115191E-2;2,000583708E-2
7,458465353E1;6,771441102E-1;5,290092826E-1;2,128865421E-1
7,468465353E1;1,240514636E0;1,465160251E0;2,296853304E0
7,478465353E1;1,076344609E0;-9,069821835E-1;1,179580808E0
7,488465353E1;1,647961736E0;1,847409248E0;4,269948006E-1
7,498465353E1;2,692388594E-1;-3,423899710E-1;1,478293896E0
7,508465353E1;1,443169117E-1;8,558222055E-1;-4,773911834E-1
7,518465353E1;-1,747227311E0;-5,581781268E-1;-1,619403720E0
7,528465353E1;-1,170265079E0;1,608560920E0;-1,747227311E0
7,538465353E1;-1,267545342E0;-1,198517561E0;-2,402227640E0
7,548465353E1;1,507309973E-1;-1,994169593E0;-3,394883573E-1
7,558465353E1;5,222898126E-1;-1,572214365E0;6,320928335E-1
7,568465353E1;-4,282165468E-1;-1,515251279E0;-1,337794960E-1
7,578465353E1;9,860892296E-1;2,486221492E-1;2,825251780E-2
7,588465353E1;1,836260915E0;2,726444244E0;1,983632207E0
7,598465353E1;1,442405581E0;-6,811147183E-2;1,912466407E0
7,608465353E1;1,297630548E0;1,680490255E0;8,888089657E-2
7,618465353E1;6,496551633E-1;4,422664344E-1;1,135140300E0
7,628465353E1;5,546656251E-1;1,057865858E0;-1,913535446E-1
7,638465353E1;-2,195755005E0;6,820310354E-1;-2,063197374E0
7,648465353E1;-1,580308437E0;2,007150412E0;-1,685988069E0
7,658465353E1;-1,326799273E0;-1,718058467E0;-1,512044191E0
7,668465353E1;-7,536550164E-1;-2,407725334E0;-7,848091125E-1
7,678465353E1;-8,689557761E-2;-1,323286891E0;-6,475171447E-2
7,688465353E1;-5,884159207E-1;-1,048397422E0;-4,790710807E-1
7,698465353E1;4,688390791E-1;7,927503586E-1;-1,788308024E-1
7,708465353E1;1,849241853E0;2,047314882E0;1,239598274E0
7,718465353E1;1,138805509E0;-7,423539758E-1;1,224479437E0
7,728465353E1;1,377043009E0;5,791002512E-1;3,240640163E-1
7,738465353E1;1,458440721E-1;-1,713477075E-1;1,427133918E0
7,748465353E1;1,237002090E-1;5,542075038E-1;3,321579695E-1
7,758465353E1;-2,774397135E0;1,113912821E0;-1,989282727E0
7,768465353E1;-1,368949056E0;1,075733662E0;-2,025018215E0
7,778465353E1;-1,472948790E0;-2,652224064E0;-1,925752640E0
7,788465353E1;-9,170614481E-1;-2,975677252E0;-7,715228200E-1
7,798465353E1;-3,352122903E-1;-1,132849574E0;-5,096143484E-1
7,808465353E1;-1,052062631E0;-1,067945123E0;-4,393648207E-1
7,818465353E1;1,230282545E0;2,425440550E0;8,520042896E-1
7,828465353E1;2,609158278E0;2,475684166E0;2,806314945E0
7,838465353E1;1,694692850E0;8,567385375E-2;7,495316267E-1
7,848465353E1;1,396132469E0;2,795166731E0;2,874121070E-1
7,858465353E1;4,747950137E-1;6,082690954E-1;4,676173329E-1
7,868465353E1;-2,208277881E-1;3,634648323E-1;-2,750420868E-1
7,878465353E1;-1,686751604E0;6,711881757E-1;-2,587167025E0
7,888465353E1;-9,318749309E-1;-1,674534321E0;-2,100307465E0
7,898465353E1;-1,271821499E0;-3,059823990E0;-8,969029188E-1
7,908465353E1;-1,337489486E0;-5,172501206E-1;-1,138958216E0
7,918465353E1;-2,306779861E0;-3,061809301E0;-5,297728777E-1
7,928465353E1;4,033237696E-1;2,222022265E-1;-1,406517178E-1
7,938465353E1;2,716059685E0;3,205820799E0;1,930945039E0
7,948465353E1;1,985617518E0;2,786156416E0;2,217899084E0
7,958465353E1;1,009912968E0;-9,337075353E-1;1,536936998E0
7,968465353E1;1,468978167E0;1,323286891E0;6,670648456E-1
7,978465353E1;-4,040873647E-1;-5,253441259E-2;1,200197458E0
7,988465353E1;-4,098905921E-1;-1,255328059E-1;-3,755294085E-1
7,998465353E1;-1,937053680E0;6,673702598E-2;-1,908953905E0
8,008465353E1;-8,022187948E-1;-5,346598029E-1;-1,526552200E0
8,018465353E1;-1,264949203E0;-1,117425203E0;-2,007455826E0
8,028465353E1;4,384485185E-1;-1,574963331E0;-1,275181174E-1
8,038465353E1;9,989174008E-1;-1,245401502E0;4,095851481E-1
8,048465353E1;-2,295326144E-1;-1,184620380E0;-8,659014851E-2
8,058465353E1;7,941248417E-1;5,655084848E-1;-1,088867337E-1
8,068465353E1;1,774563551E0;2,331978083E0;2,098627567E0
8,078465353E1;1,731192112E0;1,030224204E0;1,313665748E0
8,088465353E1;8,385652900E-1;9,503536224E-1;2,918408811E-1
8,098465353E1;1,386205912E0;8,688030839E-1;7,124215961E-1
8,108465353E1;8,170322329E-2;5,974262357E-1;-1,007927675E-2
8,118465353E1;-1,262047648E0;2,318233550E-1;-1,009760261E0
8,128465353E1;-1,280220866E0;2,639548779E0;-1,627192259E0
8,138465353E1;-1,443780065E0;-2,240348339E0;-1,174235702E0
8,148465353E1;-9,162978828E-2;-1,677435994E0;-3,795000315E-1
8,158465353E1;-1,015563458E-1;-4,592179358E-1;-2,225076705E-1
8,168465353E1;-9,793697000E-1;-1,081231475E0;-4,025602043E-1
8,178465353E1;1,016479731E0;6,678284407E-1;-3,504839242E-1
8,188465353E1;1,219439745E0;1,501048565E0;6,191119552E-1
8,198465353E1;1,318858027E0;-2,199114859E-1;1,136667490E0
8,208465353E1;1,157131433E0;7,269296050E-2;3,503312171E-1
8,218465353E1;7,845036983E-1;3,743076921E-1;1,129795313E0
8,228465353E1;5,871942043E-1;5,207626149E-2;9,786061049E-1
8,238465353E1;-3,672827184E-1;3,034473062E-1;-4,789183438E-1
8,248465353E1;-2,320677042E0;5,781839490E-1;-1,943925977E0
8,258465353E1;-6,403394938E-1;-4,189008474E-1;-1,944384098E0
8,268465353E1;-1,460120678E0;-1,795027494E0;-1,773189068E0
8,278465353E1;7,593054771E-1;-1,755626678E0;8,506298810E-2
8,288465353E1;-4,224133193E-1;-8,246681094E-1;-2,409863323E-1
8,298465353E1;5,520694852E-1;2,275473066E-2;2,464841306E-1
8,308465353E1;8,173376918E-1;1,200502872E0;4,367686510E-1
8,318465353E1;1,594052911E0;1,003346205E0;2,452013016E0
8,328465353E1;1,594205618E0;-5,642867684E-1;1,117883444E0
8,338465353E1;8,868235946E-1;1,050993681E0;1,115439892E0
8,348465353E1;5,502368808E-1;5,238169432E-1;1,140027285E0
8,358465353E1;-1,683850050E0;-8,292495608E-1;-1,089172721E0
8,368465353E1;-2,347860575E0;1,411098689E-1;-2,825709820E0
8,378465353E1;-7,290676832E-1;-2,027308941E0;-2,723237276E0
8,388465353E1;-3,732386529E-1;-3,052188158E0;-3,711006343E-1
8,398465353E1;-2,188424766E-1;-2,205834389E0;2,058615834E-1
8,408465353E1;-5,797111392E-1;-1,905441403E0;-1,302670091E-1
8,418465353E1;1,567327499E0;1,180497050E0;2,926044464E-1
8,428465353E1;2,436283350E0;9,767735004E-1;2,367102861E0
8,438465353E1;1,905441403E0;4,604396820E-1;1,349095941E0
8,448465353E1;1,107498646E0;1,161102057E0;9,027060866E-1
8,458465353E1;3,275764883E-1;6,447682381E-1;1,184925914E0
8,468465353E1;-1,197601318E0;-1,023352027E0;-1,314581990E0
8,478465353E1;-2,432770729E0;1,260673165E0;-2,101376534E0
8,488465353E1;9,224065393E-2;-9,254608750E-1;-2,318691730E0
8,498465353E1;-1,185536742E0;-2,924822807E0;-1,415680170E0
8,508465353E1;4,364632070E-1;-2,568077564E0;8,460483700E-2
8,518465353E1;-5,820018649E-1;-1,178664446E0;-4,992296100E-1
8,528465353E1;1,127810001E0;-6,307183951E-2;-8,231408894E-2
8,538465353E1;8,652906418E-1;9,787588120E-1;6,646214128E-1
8,548465353E1;1,564120412E0;5,769622326E-1;2,249205828E0
8,558465353E1;1,113607287E0;-9,931141734E-1;8,184067011E-1
8,568465353E1;6,559165716E-1;6,612616181E-1;1,103222609E0
8,578465353E1;5,914703012E-1;-5,313000679E-1;1,124755621E0
8,588465353E1;-1,690416813E0;-8,878926635E-1;-1,244943380E0
8,598465353E1;-2,164448261E0;3,582724631E-1;-2,181246996E0
8,608465353E1;-6,006332636E-1;-1,902539849E0;-2,594497442E0
8,618465353E1;-1,079704285E0;-3,040887117E0;-1,233336926E0
8,628465353E1;4,321871698E-2;-2,280818224E0;2,733621895E-1
8,638465353E1;-3,972151279E-1;-1,268919826E0;-2,593123019E-1
8,648465353E1;6,747006774E-1;2,961169183E-1;1,525636017E-1
8,658465353E1;1,783421040E0;1,680948496E0;2,556623697E0
8,668465353E1;1,344667077E0;-4,043927789E-1;1,295645237E0
8,678465353E1;1,476766706E0;1,655292153E0;3,541491330E-1
8,688465353E1;3,107776940E-1;2,313652188E-1;1,333518863E0
8,698465353E1;2,034181207E-1;6,169738770E-1;-3,443752825E-1
8,708465353E1;-2,073582172E0;-7,338019013E-1;-1,424537778E0
8,718465353E1;-1,099862933E0;2,099543810E0;-1,671021819E0
8,728465353E1;-8,497135639E-1;-1,469283581E0;-2,620153666E0
8,738465353E1;1,547016203E-1;-2,344195366E0;-2,574796975E-1
8,748465353E1;-3,084869385E-1;-1,711033583E0;2,576324046E-1
8,758465353E1;5,366451144E-1;-9,508117437E-1;-1,172861308E-1
8,768465353E1;1,536631465E0;1,555721045E0;7,396050692E-1
8,778465353E1;1,370018005E0;1,137736514E-1;2,457052708E0
8,788465353E1;1,845118523E0;2,587014437E-1;9,847147465E-1
8,798465353E1;8,092437387E-1;1,029613376E0;1,170265079E0
8,808465353E1;7,156286240E-1;1,826487035E-1;1,022588372E0
8,818465353E1;-1,652390480E0;-3,419318199E-1;-9,095783234E-1
8,828465353E1;-2,465757608E0;-5,467243791E-1;-2,753780603E0
8,838465353E1;-6,863071322E-1;-2,421164513E0;-2,753475189E0
8,848465353E1;-1,397965074E0;-3,654195786E0;-1,161865711E0
8,858465353E1;2,446515262E-1;-2,564412355E0;6,643159688E-2
8,868465353E1;-4,886921942E-1;-9,561568499E-1;-9,236282706E-1
8,878465353E1;5,928447247E-1;6,090326309E-1;-2,567161322E-1
8,888465353E1;2,103361845E0;1,871691108E0;2,955213308E0
8,898465353E1;1,855350494E0;4,796819389E-1;1,379944563E0
8,908465353E1;1,430799127E0;1,965611696E0;5,879577994E-1
8,918465353E1;4,857905805E-1;9,834930301E-2;1,175152063E0
8,928465353E1;-1,924530983E0;-4,189008474E-1;-1,772272825E0
8,938465353E1;-2,365422964E0;2,724458873E-1;-2,935971022E0
8,948465353E1;-1,626276016E0;-6,337726712E-1;-2,782032967E0
8,958465353E1;-2,126269102E0;-3,594178438E0;-1,065196276E0
8,968465353E1;-3,553708494E-1;-1,519680023E0;-3,541491330E-1
8,978465353E1;-7,545713186E-1;-1,755932093E0;-2,848159075E-1
8,988465353E1;1,869553089E0;2,547460794E0;1,116203547E0
8,998465353E1;3,253926516E0;2,520277262E0;9,781479836E-1
9,008465353E1;1,622152686E0;4,082106948E-1;1,954768777E0
9,018465353E1;1,699121714E0;8,674286306E-2;7,609853745E-1
9,028465353E1;-1,759291887E-1;4,072943926E-1;1,296408772E0
9,038465353E1;4,120286107E-1;6,785185933E-1;-8,399397135E-3
9,048465353E1;-2,521957159E0;-1,313360315E-2;-2,440101147E0
9,058465353E1;-1,550986886E0;1,656819224E0;-1,862680793E0
9,068465353E1;-1,329853654E0;-3,565009594E0;-1,325577617E0
9,078465353E1;-2,580905557E-1;-2,693152189E0;-3,721696436E-1
9,088465353E1;-5,044219494E-1;-7,950411439E-1;-6,244570017E-1
9,098465353E1;3,100141138E-2;-9,923505783E-1;-3,695734590E-2
9,108465353E1;1,440572977E0;2,447126150E0;5,876523852E-1
9,118465353E1;2,550973177E0;2,646115541E0;2,738508940E0
9,128465353E1;1,570992708E0;9,961684942E-1;6,253733039E-1
9,138465353E1;-8,689557761E-2;-2,232712507E-1;1,469436288E0
9,148465353E1;3,584251702E-1;5,277875662E-1;-1,099557430E-2
9,158465353E1;-2,844188690E0;6,695083380E-1;-2,499965906E0
9,168465353E1;-1,896278381E0;1,760819077E0;-2,005317926E0
9,178465353E1;-1,496619821E0;-2,433076382E0;-1,534646153E0
9,188465353E1;-5,319108963E-1;-2,744770288E0;-4,175263941E-1
9,198465353E1;-7,064656615E-1;-1,105971575E0;-7,165449262E-1
9,208465353E1;-6,736316681E-1;-5,183191895E-1;-3,075706363E-1
9,218465353E1;1,866193295E0;2,771037579E0;1,172097683E0
9,228465353E1;2,245540619E0;2,961932898E0;2,436283350E0
9,238465353E1;1,383762479E0;-2,261728644E-1;9,414960742E-1
9,248465353E1;1,682017446E0;1,333213449E0;3,159700334E-1
9,258465353E1;4,259257913E-1;-7,895433158E-2;8,706356883E-1
9,268465353E1;-8,613199741E-2;7,011205554E-1;-9,508117437E-1
9,278465353E1;-1,745394707E0;7,751879692E-1;-2,292119026E0
9,288465353E1;-4,517348409E-1;-7,180721164E-1;-1,873829126E0
9,298465353E1;-9,196576476E-1;-3,196963310E0;-7,956519723E-1
9,308465353E1;8,144360781E-1;-1,777159691E0;2,351831198E-1
9,318465353E1;-8,779660463E-1;-9,155342579E-1;-3,926336467E-1
9,328465353E1;3,249803185E-1;3,263547719E-1;4,810563847E-2
9,338465353E1;2,701246023E0;2,045787811E0;2,062586546E0
9,348465353E1;1,626886845E0;-7,284568250E-2;2,268753529E0
9,358465353E1;1,706910253E0;1,864055276E0;1,756237596E-1
9,368465353E1;1,237002108E-2;-3,772092983E-2;1,324508548E0
9,378465353E1;-1,386664063E-1;3,572034538E-1;-6,119342446E-1
9,388465353E1;-1,901928902E0;6,580545902E-1;-2,118327856E0
9,398465353E1;-6,120869517E-1;5,484042764E-1;-1,548696160E0
9,408465353E1;-9,318749309E-1;-2,997821093E0;-7,738135457E-1
9,418465353E1;7,452555895E-1;-1,781741261E0;6,520986557E-2
9,428465353E1;-9,225592613E-1;-1,103833556E0;-5,665774941E-1
9,438465353E1;6,971499324E-1;2,105957866E-1;3,043636084E-1
9,448465353E1;2,506227493E0;2,083966732E0;2,537534237E0
9,458465353E1;1,817324162E0;6,269004345E-1;2,391079187E0
9,468465353E1;1,594969153E0;1,945605755E0;4,520402849E-2
9,478465353E1;1,153008118E-1;1,032362282E-1;1,281137109E0
9,488465353E1;-3,184134960E-1;4,185954034E-1;-7,525860071E-1
9,498465353E1;-2,401922226E0;6,285803318E-1;-2,223702192E0
9,508465353E1;-4,156937897E-1;-1,034194827E0;-1,682017446E0
9,518465353E1;-1,135293007E0;-1,589013219E0;-1,571298122E0
9,528465353E1;8,923214078E-1;-1,682475567E0;1,224784851E-1
9,538465353E1;-4,691445231E-1;-8,342891932E-1;-8,972083330E-1
9,548465353E1;6,705773473E-1;4,689917862E-1;4,857905805E-1
9,558465353E1;1,295492411E0;1,045343161E0;5,734497309E-1
9,568465353E1;1,670105577E0;2,739730477E-1;2,275473118E0
9,578465353E1;1,635286212E0;6,440047026E-1;9,114109278E-1
9,588465353E1;1,281289905E-1;6,750060618E-2;1,498452425E0
9,598465353E1;4,155410826E-1;8,246681094E-1;4,868595898E-1
9,608465353E1;-2,216677189E0;-5,736024380E-1;-1,768913031E0
9,618465353E1;-1,875356317E0;9,298896194E-1;-2,269822598E0
9,628465353E1;-1,202641010E0;-1,105360627E0;-2,242944479E0
9,638465353E1;4,810563922E-1;-2,048536539E0;-6,658431143E-2
9,648465353E1;-1,936442852E-1;-5,097670555E-1;-4,046982229E-1
9,658465353E1;7,255551815E-1;1,679879427E-2;1,386664063E-1
9,668465353E1;7,524332404E-1;1,275486588E0;5,051855445E-1
9,678465353E1;1,908953905E0;1,056796908E0;2,740952253E0
9,688465353E1;1,678657651E0;6,398813426E-2;9,306532145E-1
9,698465353E1;2,020436823E-1;2,797762752E-1;1,261894822E0
9,708465353E1;3,275764883E-1;4,955644310E-1;7,506006956E-1
9,718465353E1;-2,309376001E0;-3,385720551E-1;-1,966222525E0
9,728465353E1;-1,798539996E0;8,426886201E-1;-2,318539143E0
9,738465353E1;-9,700540304E-1;-1,522887111E0;-2,044260502E0
9,748465353E1;-7,557930350E-1;-3,317303658E0;-6,957755089E-1
9,758465353E1;-7,160868049E-1;-1,532050014E0;-5,120577812E-1
9,768465353E1;-1,110094905E0;-7,498371005E-1;-8,691084981E-1
9,778465353E1;1,084743977E0;1,359327912E0;5,178610086E-1
9,788465353E1;2,319760799E0;2,468964577E0;1,757001162E0
9,798465353E1;1,406669974E0;-3,225368559E-1;1,192867160E0
9,808465353E1;1,425454021E0;1,111469269E0;1,343903542E-1
9,818465353E1;6,064364910E-1;1,748601794E-1;1,229671717E0
9,828465353E1;2,790127099E-1;7,861835957E-1;-2,286163121E-1
9,838465353E1;-2,097100496E0;6,630942225E-1;-2,586403370E0
9,848465353E1;-1,012203693E0;1,825876236E0;-1,799914479E0
9,858465353E1;-1,049008369E0;-3,001333714E0;-9,637926221E-1
9,868465353E1;1,577559561E-1;-2,125200272E0;4,581489135E-3
9,878465353E1;-9,880745411E-1;-1,048702955E0;-9,285151958E-1
9,888465353E1;7,648032904E-1;1,050688267E0;1,534798890E-1
9,898465353E1;1,793042183E0;2,433534384E0;1,263116598E0
9,908465353E1;1,264185667E0;-4,972442985E-1;1,356426239E0
9,918465353E1;1,291063666E0;8,665123582E-1;3,139847219E-1
9,928465353E1;-4,444044828E-2;-2,638937831E-1;1,352302909E0
9,938465353E1;3,286454976E-1;5,991060734E-1;7,452555746E-2
9,948465353E1;-2,510808945E0;8,098546267E-1;-2,640159607E0
9,958465353E1;-1,625817895E0;2,018604279E0;-1,949576378E0
9,968465353E1;-1,248761296E0;-2,770426512E0;-1,420872569E0
9,978465353E1;-1,217148975E-1;-2,455983639E0;-5,088507533E-1
9,988465353E1;-3,904955983E-1;-9,605855942E-1;-8,536841869E-1
9,998465353E1;-4,040873647E-1;-8,226827979E-1;-1,672243625E-1
1,000846535E2;1,337489486E0;2,047467470E0;7,895433307E-1
1,001846535E2;2,145053387E0;2,565023184E0;2,963918209E0
1,002846535E2;1,243110776E0;2,637410760E-1;4,567744732E-1
1,003846535E2;1,614211440E0;2,098322153E0;3,657555580E-1
1,004846535E2;3,546072841E-1;5,308418870E-1;2,411390543E-1
1,005846535E2;-6,113234162E-1;-3,126102984E-1;-8,118399382E-1
1,006846535E2;-1,705230355E0;1,837024450E0;-1,989282727E0
1,007846535E2;-6,827946305E-1;-1,491885662E0;-2,197587729E0
1,008846535E2;-3,491095006E-1;-2,318233490E0;-6,433938146E-1
1,009846535E2;9,963212013E-1;-1,437213182E0;3,367394805E-1
1,010846535E2;-7,944302559E-1;-9,989174008E-1;-4,399756789E-1
1,011846535E2;1,112691045E0;1,589471340E0;8,718574047E-1
1,012846535E2;2,204765320E0;2,211332083E0;2,066862583E0
1,013846535E2;1,125519156E0;-3,258966208E-1;9,133962393E-1
1,014846535E2;1,287093043E0;1,474934101E0;6,963863969E-2
1,015846535E2;4,714352489E-1;5,115996301E-2;9,789115787E-1
1,016846535E2;2,417499274E-1;6,435465217E-1;-5,914703012E-1
1,017846535E2;-2,002721786E0;1,176679134E0;-2,307238102E0
1,018846535E2;-1,021519423E0;4,601342380E-1;-1,584126353E0
1,019846535E2;-1,184467673E0;-2,812729120E0;-1,010218382E0
1,020846535E2;5,170974135E-1;-1,676672339E0;-1,469130963E-1
1,021846535E2;-7,418958545E-1;-9,969320893E-1;-4,332561791E-1
1,022846535E2;5,076290369E-1;-9,300423414E-2;1,302670091E-1
1,023846535E2;2,107790470E0;2,003790617E0;1,418581843E0
1,024846535E2;1,579086661E0;2,019825935E0;2,541199446E0
1,025846535E2;1,160796642E0;6,006332636E-1;4,691445231E-1
1,026846535E2;1,731497526E0;1,919796705E0;6,047565937E-1
1,027846535E2;3,604104817E-1;7,559457421E-1;-3,985895589E-2
1,028846535E2;-1,134987593E0;-7,336491346E-1;-9,998337030E-1
1,029846535E2;-1,635133505E0;2,300060272E0;-1,890475273E0
1,030846535E2;-8,721628785E-1;-1,633453608E0;-2,342210054E0
1,031846535E2;-9,544769675E-2;-2,072360277E0;-4,596760869E-1
1,032846535E2;6,779077053E-1;-1,767843962E0;3,188716471E-1
1,033846535E2;-4,842634201E-1;-1,498299718E0;-1,218676195E-1
1,034846535E2;1,330617189E0;7,816020846E-1;6,185010448E-2
1,035846535E2;2,044871330E0;1,923920035E0;1,813964367E0
1,036846535E2;1,106124282E0;-4,751004577E-1;9,381362796E-1
1,037846535E2;1,050535560E0;1,008843899E0;3,411682248E-1
1,038846535E2;3,796527386E-1;1,027780771E-1;8,938485980E-1
1,039846535E2;2,414444834E-1;3,929390609E-1;-1,249219403E-1
1,040846535E2;-2,220647812E0;1,120937690E-1;-2,084272146E0
1,041846535E2;-1,157742381E0;2,019825935E0;-1,736537218E0
1,042846535E2;-1,267392635E0;-2,885421991E0;-1,030835152E0
1,043846535E2;2,235766798E-1;-1,715004206E0;-1,953241676E-1
1,044846535E2;-4,491386712E-1;-7,148650289E-1;-5,126686692E-1
1,045846535E2;5,056437254E-1;-2,652682364E-1;2,203696370E-1
1,046846535E2;1,871080279E0;1,968971372E0;1,317483664E0
1,047846535E2;1,557859063E0;2,141082764E0;2,599078894E0
1,048846535E2;1,183093309E0;4,115704596E-1;4,485278130E-1
1,049846535E2;1,410335183E0;2,048536539E0;5,514585972E-1
1,050846535E2;2,499966025E-1;5,561928153E-1;1,114829071E-2
1,051846535E2;-1,323897719E0;-5,615378618E-1;-1,186758399E0
1,052846535E2;-1,598787069E0;2,305405378E0;-1,886810064E0
1,053846535E2;-1,045037746E0;-1,581224680E0;-2,377029419E0
1,054846535E2;-1,012509167E-1;-2,125352859E0;-4,324925840E-1
1,055846535E2;9,355401397E-1;-1,993558764E0;5,038111210E-1
1,056846535E2;6,261368841E-2;-8,355109096E-1;-2,809980139E-2
1,057846535E2;5,965099335E-1;1,141096234E0;-1,418734491E-1
1,058846535E2;2,093893290E0;2,360688686E0;2,829222441E0
1,059846535E2;1,515556693E0;-2,304489166E-1;1,726305127E0
1,060846535E2;1,590082288E0;2,178803682E0;2,464841306E-1
1,061846535E2;3,155119121E-1;5,288565755E-1;1,301143020E-1
1,062846535E2;-7,151705027E-1;-1,766927689E-1;-9,219483733E-1
1,063846535E2;-1,596038222E0;1,530828357E0;-1,971720338E0
1,064846535E2;-6,565274000E-1;-1,459509730E0;-2,056172371E0
1,065846535E2;-5,199990273E-1;-2,595719099E0;-6,224716902E-1
1,066846535E2;1,002887964E0;-1,988060951E0;2,994766831E-1
1,067846535E2;-6,339253783E-1;-9,505063295E-1;-3,459024429E-1
1,068846535E2;6,162103415E-1;7,041749358E-1;1,371392459E-1
1,069846535E2;2,695901155E0;1,939802527E0;1,994475007E0
1,070846535E2;1,839315295E0;1,306488037E0;2,510656118E0
1,071846535E2;1,406822681E0;1,568091035E0;1,817324162E-1
1,072846535E2;1,568396538E-1;3,095559776E-1;1,229977131E0
1,073846535E2;1,786780916E-2;6,650795341E-1;-7,910705209E-1
1,074846535E2;-2,318844557E0;-1,261436790E-1;-2,049758434E0
1,075846535E2;-9,106473923E-1;-5,917757154E-1;-1,834733725E0
1,076846535E2;-1,415069342E0;-1,420872569E0;-1,765705943E0
1,077846535E2;7,903069258E-1;-1,525177836E0;1,317941695E-1
1,078846535E2;-2,283108830E-1;-2,131919712E-1;-4,398229718E-2
1,079846535E2;7,206682563E-1;2,173153162E-1;6,597344577E-2
1,080846535E2;9,291260242E-1;1,055575132E0;3,565925956E-1
1,081846535E2;1,630552053E0;2,148260355E0;2,876259089E0
1,082846535E2;1,481959105E0;-3,010038435E-1;9,958630800E-1
1,083846535E2;1,257007957E0;1,451110363E0;7,163922191E-1
1,084846535E2;3,631593883E-1;6,017022580E-2;1,027628064E0
1,085846535E2;-1,925447226E0;-7,655668855E-1;-1,652390480E0
1,086846535E2;-1,021977544E0;1,913077235E0;-1,785864592E0
1,087846535E2;-1,442100167E0;-1,702175975E0;-2,121076822E0
1,088846535E2;4,062253833E-1;-1,472643375E0;-1,478293836E-1
1,089846535E2;2,631302178E-1;-1,758375645E0;3,825543523E-1
1,090846535E2;3,275764883E-1;-9,196576476E-1;6,093380973E-2
1,091846535E2;7,179193497E-1;7,793113589E-1;-7,803803682E-2
1,092846535E2;1,503186703E0;2,517528296E0;2,765539646E0
1,093846535E2;1,444696307E0;-2,095267773E-1;1,316261888E0
1,094846535E2;1,499216080E0;1,783115625E0;6,050620079E-1
1,095846535E2;2,189951837E-1;-2,356412709E-1;1,292743564E0
1,096846535E2;-1,270294309E0;-7,464773059E-1;-1,213178396E0
1,097846535E2;-2,320371628E0;5,280929804E-1;-2,753169775E0
1,098846535E2;-1,078329921E0;-1,915978789E0;-2,165517330E0
1,099846535E2;-1,486998677E0;-2,780200481E0;-1,095892191E0
1,100846535E2;4,653266072E-1;-1,771509171E0;3,155119121E-1
1,101846535E2;-6,382014751E-1;-9,069821835E-1;-8,101600409E-1
1,102846535E2;8,170322776E-1;1,019839525E0;-1,603521220E-2
1,103846535E2;1,666898489E0;2,192395449E0;1,126588225E0
1,104846535E2;1,781435728E0;3,543018401E-1;1,697594523E0
1,105846535E2;1,248303175E0;1,296561509E-1;6,172793508E-1
1,106846535E2;8,261952549E-2;9,697485715E-2;1,349706769E0
1,107846535E2;2,261728644E-1;1,757764816E-1;4,622722864E-1
1,108846535E2;-2,548224449E0;4,389066696E-1;-2,399325848E0
1,109846535E2;-1,841758728E0;1,615433097E0;-1,934304833E0
1,110846535E2;-1,353066564E0;-2,102750778E0;-1,449583173E0
1,111846535E2;9,437867999E-1;-2,187202930E0;3,889684379E-1
1,112846535E2;-5,303837657E-1;-1,206917048E0;-8,799513578E-1
1,113846535E2;5,560401082E-1;5,868887901E-1;5,436700583E-2
1,114846535E2;1,489289522E0;2,005928755E0;9,188940525E-1
1,115846535E2;1,560913444E0;2,977968007E-2;1,663996935E0
1,116846535E2;1,352455616E0;-5,910121277E-2;7,246388793E-1
1,117846535E2;-1,481348183E-2;1,447750628E-1;1,183856845E0
1,118846535E2;1,835650057E-1;1,582140923E-1;6,212499738E-1
1,119846535E2;-2,615266800E0;5,459607840E-1;-2,673757076E0
1,120846535E2;-1,610393524E0;1,586569786E0;-1,968971372E0
1,121846535E2;-1,347416043E0;-2,600453377E0;-1,512655020E0
1,122846535E2;-5,282457471E-1;-2,951700926E0;-4,465425014E-1
1,123846535E2;-4,755585790E-1;-9,911288619E-1;-9,153815508E-1
1,124846535E2;-5,804746747E-1;-1,214247346E0;-2,849686444E-1
1,125846535E2;1,346652389E0;2,373058796E0;9,552405477E-1
1,126846535E2;2,388177633E0;2,140929937E0;2,149940252E0
1,127846535E2;1,266934514E0;-2,663372457E-1;7,484626174E-1
1,128846535E2;1,554193854E0;1,739438772E0;2,231185287E-1
1,129846535E2;1,843285859E-1;-1,863138936E-2;6,214026809E-1
1,130846535E2;-4,993823469E-1;8,353582025E-2;-9,156870246E-1
1,131846535E2;-1,838093519E0;1,191492677E0;-2,021964073E0
1,132846535E2;-2,064724565E-1;-1,136972904E0;-1,936900973E0
1,133846535E2;-3,396410644E-1;-3,043483257E0;-6,215553880E-1
1,134846535E2;8,544477820E-1;-1,979203343E0;4,958698750E-1
1,135846535E2;-7,331910133E-1;-9,074403048E-1;-5,367978215E-1
1,136846535E2;1,187522054E0;2,092366219E0;8,813258410E-1
1,137846535E2;2,254550934E0;2,376724005E0;2,695748329E0
1,138846535E2;1,367574573E0;-3,752239645E-1;8,158105612E-1
1,139846535E2;1,421177983E0;2,040289879E0;3,420845270E-1
1,140846535E2;1,692096740E-1;6,368270516E-2;5,861251950E-1
1,141846535E2;-4,651738703E-1;4,001167417E-2;-8,958339095E-1
1,142846535E2;-1,779755950E0;1,053131700E0;-1,987602830E0
1,143846535E2;-1,658499092E-1;-1,131627917E0;-2,016771555E0
1,144846535E2;-4,625777006E-1;-2,905885935E0;-5,693264008E-1
1,145846535E2;7,341073155E-1;-1,812131763E0;4,471533597E-1
1,146846535E2;-7,093672752E-1;-1,158353209E0;-3,533855379E-1
1,147846535E2;9,088147879E-1;7,079927921E-1;2,958115041E-1
1,148846535E2;2,616183043E0;1,802205205E0;2,418262720E0
1,149846535E2;1,874898195E0;5,584835410E-1;2,333047152E0
1,150846535E2;1,657582879E0;2,992323399E0;1,293507218E-1
1,151846535E2;1,876883507E-1;2,721404731E-1;1,213178396E0
1,152846535E2;-7,003570199E-1;-7,122688890E-1;-9,088147879E-1
1,153846535E2;-2,475073338E0;1,222799540E0;-2,665510416E0
1,154846535E2;-2,652682364E-1;-1,599550605E0;-2,068084240E0
1,155846535E2;-1,389565706E0;-2,304336309E0;-1,336878538E0
1,156846535E2;1,008538485E0;-1,813811660E0;1,942551434E-1
1,157846535E2;-7,845036983E-1;-9,172141552E-1;-8,336783648E-1
1,158846535E2;1,832595766E-1;4,926628172E-1;-3,527746797E-1
1,159846535E2;1,751808763E0;3,007595062E0;1,734093666E0
1,160846535E2;1,679726720E0;-5,833763257E-2;1,961182833E0
1,161846535E2;1,734704614E0;2,321898699E0;2,641992271E-2
1,162846535E2;-1,951714456E-1;-3,390302137E-2;1,344056249E0
1,163846535E2;-8,576548100E-1;-7,060074806E-1;-8,031350970E-1
1,164846535E2;-2,519055605E0;9,295842052E-1;-2,595413685E0
1,165846535E2;-5,264131427E-1;-1,578170419E0;-1,898110986E0
1,166846535E2;-1,331380844E0;-1,855961323E0;-1,384373307E0
1,167846535E2;6,052147150E-1;-1,742034912E0;2,802344263E-1
1,168846535E2;-5,771149397E-1;-9,921978712E-1;-2,698497176E-1
1,169846535E2;1,233947754E0;7,154759169E-1;-2,614503205E-1
1,170846535E2;1,133154988E0;1,865582466E0;4,935791194E-1
1,171846535E2;2,064266443E0;6,869179606E-1;2,466521025E0
1,172846535E2;1,470963478E0;-5,432119370E-1;1,131780624E0
1,173846535E2;1,191187184E-2;3,155119121E-1;1,226311922E0
1,174846535E2;2,936734557E-1;3,414736688E-1;3,179553747E-1
1,175846535E2;-2,468811989E0;9,917397499E-1;-2,853198767E0
1,176846535E2;-1,381166339E0;1,859931946E0;-2,109928608E0
1,177846535E2;-1,154229879E0;-2,012037516E0;-1,251357436E0
1,178846535E2;-3,454442918E-1;-2,344653606E0;-3,562871516E-1
1,179846535E2;-8,199338913E-1;-1,331075311E0;-1,077260852E0
1,180846535E2;-2,945897579E-1;-9,544769526E-1;-2,260201424E-1
1,181846535E2;1,726916075E0;2,812423706E0;1,217912555E0
1,182846535E2;2,047773123E0;2,861598253E0;2,744922876E0
1,183846535E2;1,379944563E0;1,153008118E-1;8,814785480E-1
1,184846535E2;1,368490815E0;1,490205765E0;2,021963894E-1
1,185846535E2;3,625485301E-1;1,087340117E-1;4,279111028E-1
1,186846535E2;-2,341140985E0;4,932736754E-1;-2,421164513E0
1,187846535E2;-1,664455056E0;9,717338681E-1;-2,027308941E0
1,188846535E2;-1,311680436E0;-1,842064142E0;-1,521054506E0
1,189846535E2;-4,906775057E-1;-2,273945808E0;-4,350887835E-1
1,190846535E2;-5,477933884E-1;-6,942483783E-1;-4,802927971E-1
1,191846535E2;-6,788240075E-1;-6,635523438E-1;-2,677116990E-1
1,192846535E2;1,420872569E0;2,366339207E0;1,332755208E0
1,193846535E2;2,221258640E0;2,163379192E0;2,794555664E0
1,194846535E2;1,106735110E0;-3,759875596E-1;7,116580009E-1
1,195846535E2;1,538158655E0;1,822363734E0;8,720101416E-2
1,196846535E2;1,997529417E-1;8,261952549E-2;4,981606007E-1
1,197846535E2;-1,988366395E-1;5,374087095E-1;-6,655376554E-1
1,198846535E2;-1,886657357E0;6,363688707E-1;-1,893224120E0
1,199846535E2;-1,314887404E-1;2,168571576E-2;-1,783573747E0
1,200846535E2;-6,519459486E-1;-3,074484825E0;-6,401867867E-1
1,201846535E2;6,792821288E-1;-2,123978376E0;2,364048511E-1
1,202846535E2;-8,994990587E-1;-1,303739190E0;-6,322455406E-1
1,203846535E2;1,098946571E0;6,534730792E-1;3,668245673E-1
1,204846535E2;2,097253084E0;1,771661878E0;1,783879280E0
1,205846535E2;1,651168704E0;5,745187402E-1;2,317775488E0
1,206846535E2;1,747227311E0;1,537089705E0;3,384193480E-1
1,207846535E2;1,710422710E-2;-3,665191308E-2;1,515556693E0
1,208846535E2;-1,844813079E-1;3,086396754E-1;-5,067127347E-1
1,209846535E2;-2,223091364E0;2,394591719E-1;-2,139097452E0
1,210846535E2;-5,288565755E-1;1,319163442E0;-1,645823717E0
1,211846535E2;-8,345946670E-1;-2,689945221E0;-5,755877495E-1
1,212846535E2;6,010913849E-1;-1,763109803E0;1,466076523E-1
1,213846535E2;-1,008691192E0;-9,896016717E-1;-6,059783101E-1
1,214846535E2;6,412557960E-1;6,747006774E-1;1,414152980E-1
1,215846535E2;2,546391726E0;1,992489696E0;2,106568813E0
1,216846535E2;1,718669415E0;9,760099649E-1;2,289522886E0
1,217846535E2;1,456760883E0;1,307404399E0;3,069597781E-1
1,218846535E2;-4,886921961E-3;4,680754840E-1;1,162629247E0
1,219846535E2;-3,384193480E-1;5,241223574E-1;-8,640688658E-1
1,220846535E2;-2,490192175E0;7,425066829E-1;-2,344042778E0
1,221846535E2;-2,397646159E-1;-1,606575549E-1;-1,868484020E0
1,222846535E2;-1,088867307E0;-1,565647602E0;-1,590845823E0
1,223846535E2;8,300131559E-1;-2,091602564E0;2,962696552E-1
1,224846535E2;-2,238821089E-1;-9,169087410E-1;-7,768678665E-1
1,225846535E2;7,487680912E-1;8,167268038E-1;1,435533352E-2
1,226846535E2;1,310305953E0;1,846187472E0;1,000597239E0
1,227846535E2;1,579697490E0;2,443460980E-3;1,788613439E0
1,228846535E2;1,195005178E0;-2,264782935E-1;6,803511381E-1
1,229846535E2;2,015855350E-2;1,143845171E-1;1,282664299E0
1,230846535E2;2,168571651E-1;3,523165286E-1;1,944078654E-1
1,231846535E2;-2,483778000E0;8,393288255E-1;-2,551126003E0
1,232846535E2;-1,403004766E0;2,639854193E0;-1,917964101E0
1,233846535E2;-1,236696720E0;-2,297006130E0;-1,226311922E0
1,234846535E2;-2,104430795E-1;-2,090838909E0;-3,605632186E-1
1,235846535E2;-5,424483418E-1;-6,782131195E-1;-7,044803500E-1
1,236846535E2;5,655084848E-1;1,015716195E0;-9,926560335E-3
1,237846535E2;1,877188921E0;2,456136465E0;1,581682801E0
1,238846535E2;1,344056249E0;-6,319400668E-1;1,295492411E0
1,239846535E2;1,443627238E0;6,766859889E-1;4,236350358E-1
1,240846535E2;-1,511891466E-2;-4,512766898E-1;1,413847566E0
1,241846535E2;3,561344445E-1;5,589417219E-1;1,178969890E-1
1,242846535E2;-2,594497442E0;9,824240208E-1;-2,452471256E0
1,243846535E2;-1,581224680E0;1,640173197E0;-1,872454643E0
1,244846535E2;-1,593136549E0;-2,810896397E0;-1,482875347E0
1,245846535E2;-2,849686444E-1;-2,263713837E0;-5,783366561E-1
1,246846535E2;-2,713768780E-1;-1,153008103E0;-5,293147564E-1
1,247846535E2;-2,026545405E-1;-4,489859641E-1;-1,679879427E-2
1,248846535E2;1,845576644E0;2,323884010E0;9,737191796E-1
1,249846535E2;1,870622039E0;2,967888832E0;2,653751373E0
1,250846535E2;1,365131140E0;3,057380617E-1;7,545713186E-1
1,251846535E2;1,480584621E0;2,015244484E0;6,589708924E-1
1,252846535E2;2,671008408E-1;4,824308157E-1;3,222314268E-2
1,253846535E2;-1,017548800E0;-7,379252315E-1;-9,576839805E-1
1,254846535E2;-1,913840771E0;1,689347863E0;-2,028530836E0
1,255846535E2;-1,308626056E0;-1,844354868E0;-2,627636909E0
1,256846535E2;-1,553124934E-1;-2,166128159E0;-4,463897645E-1
1,257846535E2;1,292438149E0;-1,886351824E0;6,617197990E-1
1,258846535E2;-1,510364264E-1;-7,313584089E-1;-1,985312104E-1
1,259846535E2;6,979135275E-1;1,251662850E0;-1,634064466E-1
1,260846535E2;2,326938391E0;2,349693060E0;2,962543726E0
1,261846535E2;1,145677805E0;-2,474004216E-2;5,829181671E-1
1,262846535E2;1,283122420E0;2,011426449E0;5,513058901E-1
1,263846535E2;3,324634135E-1;5,740606189E-1;-1,817324013E-2
1,264846535E2;-1,267545342E0;-5,905539989E-1;-1,251204729E0
1,265846535E2;-1,539380431E0;2,088395596E0;-1,953547001E0
1,266846535E2;-1,193019867E0;-1,357342601E0;-2,603202343E0
1,267846535E2;-2,260201424E-2;-2,124131203E0;-4,167627990E-1
1,268846535E2;1,290910959E0;-1,953852534E0;5,293147564E-1
1,269846535E2;-5,604688451E-2;-7,063129544E-1;-9,468411654E-2
1,270846535E2;4,567744732E-1;1,057865858E0;2,748893574E-3
1,271846535E2;1,957975864E0;2,276389360E0;2,933527708E0
1,272846535E2;1,537547827E0;-1,067487001E-1;1,478599310E0
1,273846535E2;1,802968740E0;1,981494188E0;3,868304193E-1
1,274846535E2;-2,351831272E-2;-4,228714705E-1;1,381166339E0
1,275846535E2;-7,831292152E-1;-7,467827797E-1;-9,224064946E-1
1,276846535E2;-2,433076382E0;9,083566070E-1;-2,463772297E0
1,277846535E2;-8,290968537E-1;-1,304350019E0;-2,311666727E0
1,278846535E2;-1,500895858E0;-2,005012512E0;-1,438129544E0
1,279846535E2;1,064432740E0;-1,760819077E0;3,921754956E-1
1,280846535E2;-4,955644310E-1;-1,036180139E0;-5,858197808E-1
1,281846535E2;9,317222238E-1;8,396342993E-1;-1,647808999E-1
1,282846535E2;1,329395533E0;1,712866187E0;9,980010986E-1
1,283846535E2;1,527163148E0;3,711006343E-1;2,014480829E0
1,284846535E2;1,242194533E0;-4,306600094E-1;7,619016767E-1
1,285846535E2;-4,856378585E-2;1,635591686E-1;1,245401502E0
1,286846535E2;-8,735372871E-2;4,086688459E-1;-6,543893814E-1
1,287846535E2;-2,304183722E0;1,985312067E-2;-1,988671780E0
1,288846535E2;-6,818783283E-1;-4,961752892E-1;-2,035250187E0
1,289846535E2;-1,348943233E0;-1,453706622E0;-1,649488926E0
1,290846535E2;8,484918475E-1;-1,565494895E0;8,597928286E-2
1,291846535E2;-3,740022480E-1;-9,479101300E-1;-5,758932233E-1
1,292846535E2;9,834930301E-1;1,608102769E-1;2,376265824E-1
1,293846535E2;1,193630695E0;1,183398724E0;1,560760736E-1
1,294846535E2;1,625512362E0;1,992489696E0;2,667953968E0
1,295846535E2;1,275333881E0;-3,045163155E-1;1,049771905E0
1,296846535E2;1,094670534E0;1,401782990E0;8,463537693E-1
1,297846535E2;3,799581826E-1;-1,464549452E-1;9,511171579E-1
1,298846535E2;-2,182926893E0;-5,975789428E-1;-1,596801758E0
1,299846535E2;-2,166433573E0;-2,229658216E-1;-2,244929790E0
1,300846535E2;-1,191492677E0;-1,485318899E0;-2,165211916E0
1,301846535E2;-1,079856992E0;-2,822808266E0;-9,250026941E-1
1,302846535E2;-4,072943926E-1;-1,567174792E0;-1,151480973E-1
1,303846535E2;-5,697845817E-1;-7,137960196E-1;-5,900958180E-1
1,304846535E2;9,808968902E-1;8,403978348E-1;-2,687807009E-2
1,305846535E2;2,018298864E0;2,166433573E0;1,575421453E0
1,306846535E2;1,352608323E0;-3,225368559E-1;1,084591269E0
1,307846535E2;9,847147465E-1;4,809036553E-1;2,350303978E-1
1,308846535E2;3,970624208E-1;-4,066835344E-1;1,283580542E0
1,309846535E2;3,150537610E-1;6,272059083E-1;-3,405573592E-2
1,310846535E2;-2,233781576E0;4,935791194E-1;-2,675589800E0
1,311846535E2;-1,144914150E0;-1,577406764E0;-2,473240614E0
1,312846535E2;-1,350775719E0;-2,661998034E0;-1,118036151E0
1,313846535E2;-6,963863969E-2;-2,002568960E0;2,199114859E-1
1,314846535E2;-3,579670191E-1;-3,811798990E-1;-6,867652535E-1
1,315846535E2;8,729264140E-1;1,105055213E0;1,159116775E-1
1,316846535E2;1,404684663E0;2,480112791E0;1,262963891E0
1,317846535E2;1,444085479E0;-4,566217586E-2;1,230893493E0
1,318846535E2;1,116203547E0;2,710714638E-1;5,757405162E-1
1,319846535E2;1,676825136E-1;2,727513313E-1;9,343183637E-1
1,320846535E2;3,222314119E-1;5,436700583E-1;2,852740586E-1
1,321846535E2;-2,493551970E0;4,297437072E-1;-2,326632977E0
1,322846535E2;-1,701870561E0;2,381305456E0;-1,738522530E0
1,323846535E2;-1,459204316E0;-2,508212805E0;-1,252121091E0
1,324846535E2;-4,286746979E-1;-2,228741884E0;-4,839579761E-1
1,325846535E2;-1,534798890E-1;-6,062837839E-1;-9,248499870E-1
1,326846535E2;-3,978259861E-1;-1,063058257E0;-1,620320082E-1
1,327846535E2;1,479057431E0;1,874439955E0;1,057865858E0
1,328846535E2;2,109470367E0;2,168877125E0;2,288759470E0
1,329846535E2;1,091463447E0;-7,732026577E-1;8,181012869E-1
1,330846535E2;1,213178396E0;1,328784585E0;1,663080603E-1
1,331846535E2;4,074471295E-1;-6,368270516E-2;6,527095437E-1
1,332846535E2;4,734205548E-3;4,616613984E-1;-3,164281845E-1
1,333846535E2;-2,093893290E0;6,397286057E-1;-2,179261684E0
1,334846535E2;-6,265950203E-1;1,093448758E0;-1,882228494E0
1,335846535E2;-1,052978992E0;-2,969568729E0;-9,761626720E-1
1,336846535E2;1,108720452E-1;-1,703092337E0;3,613267839E-1
1,337846535E2;-4,874704778E-1;-6,256787181E-1;-5,844452977E-1
1,338846535E2;7,512115240E-1;6,572909951E-1;-1,153008118E-1
1,339846535E2;2,348471403E0;2,414597511E0;1,957670450E0
1,340846535E2;1,271821499E0;-5,687155724E-1;1,093906879E0
1,341846535E2;1,246317863E0;8,439103365E-1;1,218676195E-1
1,342846535E2;3,738495409E-1;-2,961169183E-1;1,111621976E0
1,343846535E2;2,588541508E-1;9,344711304E-1;-4,239404798E-1
1,344846535E2;-2,281887054E0;-1,649336219E-1;-2,455067396E0
1,345846535E2;-1,192714334E0;2,160325050E0;-1,774105430E0
1,346846535E2;-1,214094639E0;-2,731483936E0;-8,849910498E-1
1,347846535E2;3,859141171E-1;-1,798998117E0;-2,474004216E-2
1,348846535E2;-7,214318514E-1;-8,382598162E-1;-7,050912380E-1
1,349846535E2;5,360342264E-1;-8,066475391E-1;1,803579628E-1
1,350846535E2;1,698205352E0;2,497369766E0;1,246012330E0
1,351846535E2;1,932777643E0;1,893987656E0;3,065169096E0
1,352846535E2;1,102611780E0;2,588541508E-1;3,355177343E-1
1,353846535E2;9,556986690E-1;2,350151300E0;6,003278494E-1
1,354846535E2;4,265366495E-1;7,547240257E-1;-1,514945775E-1
1,355846535E2;-1,705841184E0;-9,819658995E-1;-1,199281216E0
1,356846535E2;-1,376432061E0;2,431243658E0;-2,036319256E0
1,357846535E2;-7,877107263E-1;-1,480584621E0;-2,427883863E0
1,358846535E2;6,276640296E-2;-2,244624376E0;-2,348776907E-1
1,359846535E2;3,423899710E-1;-2,237599373E0;2,834414840E-1
1,360846535E2;2,026545405E-1;-1,029002547E0;1,056796908E-1
1,361846535E2;2,094656944E0;2,403754711E0;1,281289816E0
1,362846535E2;1,499368787E0;2,170404196E0;2,557998180E0
1,363846535E2;1,285565853E0;4,596760869E-1;6,395758986E-1
1,364846535E2;1,497994304E0;1,993406057E0;7,043276429E-1
1,365846535E2;1,960877478E-1;4,683809280E-1;7,376197726E-2
1,366846535E2;-1,305724502E0;-6,600399017E-1;-1,201266527E0
1,367846535E2;-1,488525867E0;2,543642998E0;-1,909870148E0
1,368846535E2;-8,213083148E-1;-1,493718266E0;-2,334574223E0
1,369846535E2;-8,827003092E-2;-2,304794550E0;-3,138320148E-1
1,370846535E2;5,626068711E-1;-2,153147221E0;5,254968405E-1
1,371846535E2;2,144137025E-1;-1,080773354E0;1,171334088E-1
1,372846535E2;6,953173876E-1;1,095128655E0;-1,194241568E-1
1,373846535E2;1,551750422E0;2,498897076E0;2,963307381E0
1,374846535E2;1,277930140E0;-7,374670506E-1;1,584889889E0
1,375846535E2;1,471116185E0;1,882534027E0;4,981606007E-1
1,376846535E2;2,150245607E-1;-6,776022911E-1;1,139416456E0
1,377846535E2;-1,058782220E0;-7,553348541E-1;-9,521862268E-1
1,378846535E2;-2,552347660E0;6,354525685E-1;-2,307238102E0
1,379846535E2;-8,773552179E-1;-1,742340446E0;-2,304183722E0
1,380846535E2;-1,268919826E0;-2,125047445E0;-1,397506952E0
1,381846535E2;1,117272496E0;-1,962251902E0;4,670064747E-1
1,382846535E2;-5,401576161E-1;-9,469938278E-1;-8,026769161E-1
1,383846535E2;8,359690905E-1;1,024573684E0;5,803219974E-3
1,384846535E2;1,125366449E0;1,880090475E0;9,709703326E-1
1,385846535E2;1,637729764E0;4,723515511E-1;1,891544223E0
1,386846535E2;1,435838699E0;1,465923905E0;1,701259762E-1
1,387846535E2;-2,026545405E-1;-2,565634064E-2;1,286024094E0
1,388846535E2;-2,713768780E-1;-4,398229718E-2;-4,944954216E-1
1,389846535E2;-2,274862289E0;2,690861523E-1;-2,077552795E0
1,390846535E2;-4,700607955E-1;-8,761335015E-1;-1,976759911E0
1,391846535E2;-1,173166752E0;-1,540602207E0;-1,619403720E0
1,392846535E2;8,648324609E-1;-1,655292153E0;1,412625909E-1
1,393846535E2;-3,385720551E-1;-7,243334651E-1;-1,985312104E-1
1,394846535E2;8,576548100E-1;2,768746614E-1;3,309362531E-1
1,395846535E2;1,095739484E0;1,076344609E0;3,631593883E-1
1,396846535E2;1,581530094E0;1,922698379E0;2,726597071E0
1,397846535E2;1,269683361E0;-5,015203953E-1;1,129795313E0
1,398846535E2;1,429271936E0;1,751808763E0;6,904304624E-1
1,399846535E2;1,617265791E-1;-3,207042441E-2;1,046412110E0
1,400846535E2;-1,895667553E0;-1,088714600E0;-1,454317451E0
1,401846535E2;-2,183385134E0;2,808452845E-1;-2,343584538E0
1,402846535E2;-1,366505504E0;-1,368949056E0;-2,493093729E0
1,403846535E2;-1,344208956E0;-2,876564503E0;-1,021061301E0
1,404846535E2;1,432479024E-1;-1,507157326E0;3,433062732E-1
1,405846535E2;-7,884743214E-1;-6,041457057E-1;-7,130324841E-1
1,406846535E2;1,054353356E0;9,611964822E-1;2,907718420E-1
1,407846535E2;1,967749715E0;2,279596329E0;1,664760470E0
1,408846535E2;1,338100314E0;-3,495676219E-1;1,192867160E0
1,409846535E2;9,527970552E-1;2,086868286E0;7,832819819E-1
1,410846535E2;1,925752759E-1;-5,913175344E-1;1,121243119E0
1,411846535E2;-1,600008845E0;-1,165072680E0;-1,255328059E0
1,412846535E2;-2,144289732E0;9,289733171E-1;-2,452318430E0
1,413846535E2;-1,365436554E0;-1,552208543E0;-2,499507904E0
1,414846535E2;-1,479821086E0;-2,873357296E0;-1,061531067E0
1,415846535E2;8,303185701E-1;-1,870774865E0;4,697553813E-1
1,416846535E2;-2,160935849E-1;-8,066475391E-1;-7,357872128E-1
1,417846535E2;9,735664725E-1;1,361771345E0;-8,445212245E-2
1,418846535E2;1,513724089E0;2,192242622E0;1,399339557E0
1,419846535E2;1,473101497E0;-2,832887471E-1;1,365894675E0
1,420846535E2;1,187674761E0;2,217440903E-1;2,846632004E-1
1,421846535E2;1,159116775E-1;-3,150537610E-1;1,331380844E0
1,422846535E2;3,005456924E-1;5,526803136E-1;-8,124507964E-2
1,423846535E2;-2,442391872E0;5,458080769E-1;-2,820212126E0
1,424846535E2;-1,477224827E0;2,627789497E0;-1,857946634E0
1,425846535E2;-1,489747643E0;-2,458121777E0;-1,183246017E0
1,426846535E2;-1,328631938E-1;-2,039831877E0;-2,141082734E-1
1,427846535E2;-4,732678533E-1;-8,155050874E-1;-5,676465034E-1
1,428846535E2;-3,460551500E-1;-8,466592431E-1;-1,711949855E-1
1,429846535E2;1,414305806E0;2,398409605E0;1,467756510E0
1,430846535E2;2,181399822E0;2,051438093E0;2,619542837E0
1,431846535E2;1,081995010E0;-3,159700334E-1;5,684100986E-1
1,432846535E2;1,299463034E0;1,508989930E0;5,619960278E-2
1,433846535E2;3,298672438E-1;-5,861251950E-1;1,042747021E0
1,434846535E2;-2,184301376E0;-5,265658498E-1;-1,809230089E0
1,435846535E2;-1,943315029E0;1,115134478E0;-2,056630611E0
1,436846535E2;-1,366658211E0;-1,384067893E0;-1,985006571E0
1,437846535E2;-9,250026941E-1;-2,799900770E0;-1,028849840E0
1,438846535E2;-1,275181174E-1;-1,381929874E0;-1,337794960E-1
1,439846535E2;-3,216205537E-1;-6,866125464E-1;-3,938553631E-1
1,440846535E2;8,367326856E-1;8,515461683E-1;1,629483104E-1
1,441846535E2;1,855655909E0;2,072360277E0;1,729054093E0
1,442846535E2;1,292896271E0;-1,252273750E-2;1,005789638E0
1,443846535E2;9,821186066E-1;6,305656433E-1;2,283108830E-1
1,444846535E2;2,165517360E-1;-3,665191587E-3;9,239336848E-1
1,445846535E2;2,209804952E-1;5,083925724E-1;-1,119410545E-1
1,446846535E2;-2,347402334E0;4,608978331E-1;-2,350609541E0
1,447846535E2;-1,074970126E0;1,583820820E0;-1,711797118E0
1,448846535E2;-1,164309144E0;-2,709187269E0;-9,332493544E-1
1,449846535E2;5,535966158E-1;-1,731497526E0;-1,617265791E-1
1,450846535E2;-6,846272349E-1;-9,135489464E-1;-6,185010672E-1
1,451846535E2;6,282749176E-1;-1,183551401E-1;6,520986557E-2
1,452846535E2;2,134210348E0;2,023185730E0;1,464396715E0
1,453846535E2;1,455080986E0;1,785100937E0;2,729651451E0
1,454846535E2;1,270447016E0;8,665123582E-1;2,651155293E-1
1,455846535E2;1,506088257E0;1,412320495E0;6,956228018E-1
1,456846535E2;1,450804919E-1;8,092437387E-1;-8,628471941E-2
1,457846535E2;-1,890322447E0;-6,615670323E-1;-1,376279354E0
1,458846535E2;-1,185689449E0;2,656652927E0;-1,823890924E0
1,459846535E2;-1,345430732E0;-2,790127039E0;-1,125061035E0
1,460846535E2;1,795943826E-1;-1,993406057E0;-3,071125150E-1
1,461846535E2;-3,228422701E-1;-7,990117669E-1;-5,380195379E-1
1,462846535E2;2,339613885E-1;-7,852672935E-1;1,299615800E-1
1,463846535E2;2,016618967E0;2,067015171E0;1,325272202E0
1,464846535E2;1,240514636E0;1,885893703E0;2,705980301E0
1,465846535E2;1,486693263E0;7,831292152E-1;3,358231783E-1
1,466846535E2;1,529453874E0;2,040289879E0;3,555235863E-1
1,467846535E2;1,840231568E-1;3,665191531E-1;2,796235681E-1
1,468846535E2;-8,462010622E-1;-4,795292318E-1;-1,057713151E0
1,469846535E2;-1,704619408E0;1,935526490E0;-1,919033170E0
1,470846535E2;-6,650795341E-1;-1,536631465E0;-2,104430676E0
1,471846535E2;-4,184426963E-1;-2,547460794E0;-5,277875662E-1
1,472846535E2;1,012967348E0;-2,192700863E0;4,405865669E-1
1,473846535E2;-4,233296216E-1;-5,824599862E-1;-2,689334154E-1
1,474846535E2;1,065501690E0;1,098488450E0;6,414084882E-2
1,475846535E2;2,214844704E0;1,815186024E0;2,392148256E0
1,476846535E2;1,867109656E0;9,514226317E-1;2,253023624E0
1,477846535E2;9,766207933E-1;1,102611780E0;1,175915599E-1
1,478846535E2;3,393356502E-1;1,405142784E0;8,487972617E-1
1,479846535E2;-2,272418737E-1;2,834414840E-1;-7,753407359E-1
1,480846535E2;-2,509434462E0;2,936734557E-1;-2,300365686E0
1,481846535E2;-6,878342628E-1;-1,193172574E0;-2,045329571E0
1,482846535E2;-1,390023828E0;-1,664607763E0;-1,437213182E0
1,483846535E2;1,132696867E0;-1,698510766E0;1,774563491E-1
1,484846535E2;-8,885034919E-1;-1,143692493E0;-5,267185569E-1
1,485846535E2;3,933972120E-1;4,376849532E-1;1,789835095E-1
1,486846535E2;2,720793724E0;2,475531340E0;1,855350494E0
1,487846535E2;1,358716965E0;-2,918408811E-1;9,352346659E-1
1,488846535E2;1,049008369E0;1,329395533E0;7,096726894E-1
1,489846535E2;1,373072386E0;2,256994247E0;7,635815740E-1
1,490846535E2;2,988658249E-1;9,946413636E-1;-3,430008292E-1
1,491846535E2;-1,893224120E0;-8,906415105E-1;-1,356426239E0
1,492846535E2;-1,472337961E0;1,983479500E0;-1,629330277E0
1,493846535E2;-1,294270754E0;-1,476461291E0;-2,263103008E0
1,494846535E2;8,384125680E-2;-1,669647455E0;-2,182316035E-1
1,495846535E2;1,794416606E-1;-1,744173050E0;4,589125216E-1
1,496846535E2;2,961169183E-1;-1,150717378E0;1,947132945E-1
1,497846535E2;7,864890099E-1;1,065348983E0;-3,924809024E-2
1,498846535E2;1,401935697E0;2,409405231E0;3,097392321E0
1,499846535E2;1,052673578E0;-1,015563488E0;1,311375022E0
1,500846535E2;1,578781247E0;1,873218298E0;4,060726762E-1
1,501846535E2;7,544185966E-2;-6,264423132E-1;1,259145975E0
1,502846535E2;-6,774495840E-1;-9,117163718E-2;-9,201157689E-1
1,503846535E2;-2,691166878E0;2,255619913E-1;-2,334727049E0
1,504846535E2;-1,052673578E0;-1,887573600E0;-2,281734467E0
1,505846535E2;-1,484860659E0;-2,253787279E0;-1,354899168E0
1,506846535E2;1,356578946E0;-1,563814998E0;4,634940028E-1
1,507846535E2;-3,292563558E-1;-9,711230397E-1;-8,929322958E-1
1,508846535E2;4,954117239E-1;7,360926270E-1;-3,408628106E-1
1,509846535E2;1,995849490E0;2,213470221E0;2,420858860E0
1,510846535E2;1,684460878E0;2,973386645E-1;1,907426715E0
1,511846535E2;1,313054800E0;1,838093519E0;4,208861589E-1
1,512846535E2;1,249219403E-1;2,223549485E-1;1,142776132E0
1,513846535E2;-4,156937897E-1;-3,604105115E-2;-7,237225771E-1
1,514846535E2;-2,498133421E0;5,401576161E-1;-2,196671486E0
1,515846535E2;-9,306532145E-1;-1,634828091E0;-2,040900707E0
1,516846535E2;-1,459051609E0;-1,971567631E0;-1,706452012E0
1,517846535E2;9,625709057E-1;-1,697899938E0;2,835941911E-1
1,518846535E2;-2,331978083E-1;-4,683809280E-1;-4,657847583E-1
1,519846535E2;1,096503139E0;5,969680548E-1;1,795943826E-1
1,520846535E2;7,831292152E-1;9,317222238E-1;7,880161703E-2
1,521846535E2;1,586569786E0;1,841453314E0;2,762027264E0
1,522846535E2;1,380708218E0;-2,735149264E-1;1,038623691E0
1,523846535E2;1,273043156E0;1,417360067E0;8,286387324E-1
1,524846535E2;2,793181241E-1;1,780672222E-1;8,724682927E-1
1,525846535E2;-1,884672046E0;-6,670648456E-1;-1,543198347E0
1,526846535E2;-2,227061987E0;3,833179474E-1;-2,398562431E0
1,527846535E2;-1,595121861E0;-1,181260705E0;-2,229505539E0
1,528846535E2;-1,492038369E0;-2,743243217E0;-1,080620646E0
1,529846535E2;1,821905524E-1;-9,072875977E-1;2,637410760E-1
1,530846535E2;-6,056728959E-1;-9,775370955E-1;-6,560692787E-1
1,531846535E2;8,585711122E-1;9,185886383E-1;2,901609987E-2
1,532846535E2;2,101834536E0;2,350914955E0;1,176221013E0
1,533846535E2;1,424537778E0;-6,013968587E-1;1,419498086E0
1,534846535E2;1,243721604E0;1,495856285E0;4,451680481E-1
1,535846535E2;1,327104717E-1;4,082106948E-1;1,028086185E0
1,536846535E2;-3,712533414E-1;-1,455386430E-1;-9,269880056E-1
1,537846535E2;-2,387261391E0;6,371324658E-1;-2,124283791E0
1,538846535E2;-7,686212063E-1;-1,179428101E0;-2,216524601E0
1,539846535E2;-1,372919679E0;-2,035250187E0;-1,595579982E0
1,540846535E2;9,537133574E-1;-1,951408982E0;4,335615933E-1
1,541846535E2;-5,135849714E-1;-1,078940749E0;-6,093381047E-1
1,542846535E2;3,129157126E-1;6,238461137E-1;-5,345070735E-2
1,543846535E2;1,567022085E0;2,316248178E0;1,089783549E0
1,544846535E2;1,447139740E0;-4,667010605E-1;1,777465105E0
1,545846535E2;1,276861072E0;4,428773187E-3;6,226243973E-1
1,546846535E2;1,794416606E-1;3,654501438E-1;1,287551165E0
1,547846535E2;4,874704778E-1;3,158173263E-1;8,436049223E-1
1,548846535E2;-1,939955354E0;-9,269880056E-1;-1,653306842E0
1,549846535E2;-2,261881351E0;6,044511795E-1;-2,239890099E0
1,550846535E2;-1,402241111E0;-1,045343161E0;-2,312277555E0
1,551846535E2;-1,202488184E0;-2,646115541E0;-1,097113967E0
1,552846535E2;2,787072659E-1;-1,836108208E0;3,681990206E-1
1,553846535E2;-2,938261926E-1;-7,099781036E-1;-6,589708924E-1
1,554846535E2;8,301658630E-1;1,142928839E0;-5,253441259E-2
1,555846535E2;1,677894115E0;2,146885872E0;1,342070937E0
1,556846535E2;1,311985850E0;-3,715587854E-1;1,455539107E0
1,557846535E2;1,152091861E0;-6,291911751E-2;3,491095006E-1
1,558846535E2;-2,290744707E-2;1,032362282E-1;1,291063666E0
1,559846535E2;-3,011565804E-1;1,177442744E-1;-8,550586104E-1
1,560846535E2;-2,313957453E0;5,198463202E-1;-2,122145891E0
1,561846535E2;-7,579310536E-1;-9,613491893E-1;-1,788766146E0
1,562846535E2;-1,428661108E0;-1,259451389E0;-1,693013072E0
1,563846535E2;8,917105198E-1;-1,746005535E0;1,653917581E-1
1,564846535E2;-3,509420753E-1;-7,327328324E-1;-4,451680481E-1
1,565846535E2;1,132086039E0;3,588833213E-1;2,767219543E-1
1,566846535E2;9,604328871E-1;8,422304392E-1;-2,121229619E-1
1,567846535E2;1,217912555E0;1,711338997E0;2,794708490E0
1,568846535E2;1,251204729E0;-1,768454909E-1;9,987646937E-1
1,569846535E2;1,517694712E0;1,581682801E0;4,534147382E-1
1,570846535E2;3,489567637E-1;-4,227187634E-1;1,162934661E0
1,571846535E2;-1,583209991E0;-8,865181804E-1;-1,381166339E0
1,572846535E2;-2,343126297E0;8,358163834E-1;-2,606714725E0
1,573846535E2;-1,308320642E0;-7,551821470E-1;-2,316859245E0
1,574846535E2;-1,310458660E0;-2,292424440E0;-1,139416456E0
1,575846535E2;8,090910316E-1;-1,705383062E0;6,659958363E-1
1,576846535E2;-5,707008839E-1;-1,034805775E0;-3,874412775E-1
1,577846535E2;6,172793508E-1;1,033583999E0;-1,673770845E-1
1,578846535E2;1,776854277E0;2,291508198E0;1,407433510E0
1,579846535E2;1,272432327E0;-1,495092660E-1;1,500437737E0
1,580846535E2;1,111774802E0;-2,244929783E-2;4,476115108E-1
1,581846535E2;-3,207042580E-3;2,222022265E-1;1,306335330E0
1,582846535E2;3,437644243E-1;2,909245789E-1;5,603161454E-1
1,583846535E2;-2,395355225E0;-6,331618428E-1;-1,788766146E0
1,584846535E2;-5,523748994E-1;-6,108652353E-1;-2,068847895E0
1,585846535E2;-1,334129691E0;-2,055408716E0;-1,858252048E0
1,586846535E2;8,028296232E-1;-1,806023121E0;1,237002090E-1
1,587846535E2;-1,415680200E-1;-7,866417170E-1;2,301434875E-1
1,588846535E2;7,086036801E-1;2,202169150E-1;-2,330450863E-1
1,589846535E2;1,256244421E0;1,165530920E0;5,367978215E-1
1,590846535E2;1,605048418E0;1,234253287E0;2,338239431E0
1,591846535E2;1,361313224E0;-3,023782931E-2;9,757044911E-1
1,592846535E2;1,171334147E0;1,474628687E0;7,611380816E-1
1,593846535E2;9,361509979E-2;-8,597928286E-2;9,944885969E-1
1,594846535E2;-1,604590297E0;-6,214026809E-1;-1,247234106E0
1,595846535E2;-2,409252644E0;5,884159207E-1;-2,320066214E0
1,596846535E2;-9,584475756E-1;-1,558470011E0;-2,548224449E0
1,597846535E2;-1,323745012E0;-2,896264791E0;-1,341001987E0
1,598846535E2;6,991352439E-1;-2,038151979E0;4,337143302E-1
1,599846535E2;-1,380555481E-1;-7,648032904E-1;-6,725626588E-1
1,600846535E2;8,115344644E-1;1,003193498E0;-2,996293902E-1
1,601846535E2;1,590845823E0;2,460565090E0;1,100473762E0
1,602846535E2;1,361771345E0;-4,318817258E-1;1,612836957E0
1,603846535E2;1,080620646E0;-1,556179225E-1;4,068362415E-1
1,604846535E2;-6,658431143E-2;-3,054326167E-3;1,256091714E0
1,605846535E2;1,740965992E-1;3,488040566E-1;4,083634019E-1
1,606846535E2;-2,394286394E0;4,497495294E-1;-2,039068222E0
1,607846535E2;-1,823738217E0;8,817839622E-1;-2,009899378E0
1,608846535E2;-1,320537925E0;-1,520290852E0;-1,736078978E0
1,609846535E2;8,578075171E-1;-1,637729764E0;1,113301888E-1
1,610846535E2;-3,472768962E-1;-6,374378800E-1;-3,448334336E-1
1,611846535E2;1,267545342E0;2,761110961E-1;4,789183438E-1
1,612846535E2;1,079856992E0;1,532813668E0;3,940080702E-1
1,613846535E2;1,505630136E0;1,953699827E0;2,638479710E0
1,614846535E2;1,210887671E0;-3,281873465E-1;1,180038929E0
1,615846535E2;1,253342748E0;1,741576791E0;7,131851912E-1
1,616846535E2;3,072652221E-1;-2,469422817E-1;1,019075990E0
1,617846535E2;-1,646129131E0;-6,627888083E-1;-1,263422012E0
1,618846535E2;-2,254245520E0;1,571450830E-1;-2,417957306E0
1,619846535E2;-1,321454287E0;-1,610088110E0;-2,333657980E0
1,620846535E2;-1,522123456E0;-2,728734970E0;-1,106429696E0
1,621846535E2;6,389650702E-1;-1,756848454E0;4,529565871E-1
1,622846535E2;-3,921754956E-1;-7,638869882E-1;-7,002043128E-1
1,623846535E2;6,733261943E-1;9,960157871E-1;-9,941831976E-2
1,624846535E2;1,686598897E0;2,124742031E0;1,201877356E0
1,625846535E2;1,271821499E0;-8,888089061E-1;1,226159215E0
1,626846535E2;1,319927096E0;5,345070735E-3;3,497203588E-1
1,627846535E2;-7,086037099E-2;-3,202461004E-1;1,316109180E0
1,628846535E2;1,860084683E-1;1,893682331E-1;5,629123449E-1
1,629846535E2;-2,150092840E0;-3,695734739E-1;-1,693623900E0
1,630846535E2;-1,960572004E0;1,003040791E0;-2,063808203E0
1,631846535E2;-1,413236737E0;-1,310000539E0;-1,967902422E0
1,632846535E2;-9,570731521E-1;-2,707965612E0;-9,445503950E-1
1,633846535E2;9,040805697E-2;-1,068403363E0;-6,963863969E-2
1,634846535E2;5,896376967E-1;-3,765984178E-1;2,947424725E-2
1,635846535E2;1,010676503E0;8,724682927E-1;1,194241568E-1
1,636846535E2;1,174846530E0;2,090838909E0;2,863125324E0
1,637846535E2;1,099710107E0;-7,118107080E-1;1,077108145E0
1,638846535E2;1,422857881E0;1,584126353E0;3,440698385E-1
1,639846535E2;1,069014147E-2;-4,784601927E-1;1,295339704E0
1,640846535E2;-8,388707042E-1;-2,393064648E-1;-1,003346205E0
1,641846535E2;-2,477516651E0;8,535314798E-1;-2,432312727E0
1,642846535E2;-1,169959664E0;-1,596190929E0;-2,155285358E0
1,643846535E2;-1,617571115E0;-2,029141665E0;-1,407586217E0
1,644846535E2;1,208749652E0;-1,340085626E0;3,090978265E-1
1,645846535E2;-2,788599730E-1;-7,977899909E-1;-6,255260110E-1
1,646846535E2;1,162171125E0;8,726209998E-1;-1,426370293E-1
1,647846535E2;1,274417639E0;1,448819637E0;8,385652900E-1
1,648846535E2;1,554804802E0;1,208291411E0;2,377487421E0
1,649846535E2;1,268461704E0;-3,465133011E-1;9,463829994E-1
1,650846535E2;9,679159522E-1;1,417970896E0;9,155342579E-1
1,651846535E2;3,964515328E-1;9,926560335E-3;8,202393055E-1
1,652846535E2;-1,732719302E0;-6,968445182E-1;-1,529911995E0
1,653846535E2;-2,350914955E0;6,067419052E-1;-1,941635132E0
1,654846535E2;-1,487151384E0;-9,564622641E-1;-2,163837433E0
1,655846535E2;-1,430341005E0;-2,674368143E0;-1,358411551E0
1,656846535E2;2,315179259E-1;-1,784337401E0;4,404338300E-1
1,657846535E2;-5,856670737E-1;-8,985827565E-1;-5,800165534E-1
1,658846535E2;8,642216325E-1;6,762278080E-1;2,470949888E-1
1,659846535E2;1,528690219E0;3,025004625E0;2,856863976E0
1,660846535E2;1,126740932E0;-9,253081083E-1;1,386511445E0
1,661846535E2;1,532202721E0;1,559386253E0;3,982841372E-1
1,662846535E2;5,757404864E-2;1,267545372E-1;1,213636518E0
1,663846535E2;-3,159700334E-1;2,116648108E-1;-9,185886383E-1
1,664846535E2;-2,583349228E0;5,962044597E-1;-2,088242769E0
1,665846535E2;-8,081747293E-1;9,132435173E-2;-1,906968594E0
1,666846535E2;-1,236391306E0;-2,089770079E0;-1,717294931E0
1,667846535E2;8,923214078E-1;-1,775021672E0;3,219259977E-1
1,668846535E2;-3,394883573E-1;-8,761335015E-1;-7,368562222E-1
1,669846535E2;9,213374853E-1;5,815436840E-1;1,298088580E-1
1,670846535E2;1,206000686E0;1,189049244E0;1,780672222E-1
1,671846535E2;1,594816446E0;1,164767265E0;2,661845207E0
1,672846535E2;1,255480766E0;-4,886921942E-1;8,590292335E-1
1,673846535E2;9,117164016E-1;1,779450417E0;7,768678665E-1
1,674846535E2;5,455026627E-1;-7,128797174E-1;8,851437569E-1
1,675846535E2;-1,809077382E0;-8,825475574E-1;-1,247081399E0
1,676846535E2;-2,368171930E0;-4,886921868E-2;-2,085035801E0
1,677846535E2;-1,313054800E0;-1,461036921E0;-2,251191139E0
1,678846535E2;-1,385289669E0;-2,485763311E0;-9,709703326E-1
1,679846535E2;5,615378618E-1;-1,652390480E0;4,266893864E-1
1,680846535E2;-4,946481287E-1;-1,012203693E0;-8,075638413E-1
1,681846535E2;5,195409060E-1;8,426886201E-1;-6,643159688E-2
1,682846535E2;1,877647042E0;2,045634985E0;1,162171125E0
1,683846535E2;1,364672899E0;-7,979426980E-1;1,625359654E0
1,684846535E2;1,433242559E0;1,480737329E0;5,548183322E-1
1,685846535E2;2,212859392E-1;-2,915354371E-1;1,094823241E0
1,686846535E2;-2,545780838E-1;1,759291887E-1;-5,966626406E-1
1,687846535E2;-2,449264288E0;2,292271852E-1;-1,922851086E0
1,688846535E2;-7,333437204E-1;-9,387471676E-1;-1,941635132E0
1,689846535E2;-1,380555511E0;-1,649488926E0;-1,698052645E0
1,690846535E2;8,301658630E-1;-1,682628274E0;3,124575615E-1
1,691846535E2;-2,901609987E-2;-8,127561808E-1;-2,936734557E-1
1,692846535E2;1,131169677E0;5,658139586E-1;2,470949888E-1
1,693846535E2;9,007207751E-1;1,056644201E0;3,089450896E-1
1,694846535E2;1,678046823E0;1,046717644E0;2,638326883E0
1,695846535E2;1,516167521E0;-9,071348608E-2;7,739662528E-1
1,696846535E2;5,593998432E-1;3,772092983E-2;1,142165303E0
1,697846535E2;2,623666227E-1;7,174612284E-1;5,528330207E-1
1,698846535E2;-2,225534916E0;-2,602286041E-1;-1,907274008E0
1,699846535E2;-1,859168410E0;2,457205504E-1;-2,223855019E0
1,700846535E2;-1,481500983E0;-1,230282545E0;-1,746769190E0
1,701846535E2;-1,221425056E0;-2,676353455E0;-7,768678665E-1
1,702846535E2;-1,589776874E-1;-9,379835725E-1;-2,177734673E-1
1,703846535E2;-5,737552047E-1;-8,567385077E-1;-4,786129296E-1
1,704846535E2;1,286176801E0;1,126282811E0;1,724167168E-1
1,705846535E2;2,281581640E0;2,371073484E0;1,381166339E0
1,706846535E2;1,458288074E0;-2,921462953E-1;1,264796495E0
1,707846535E2;1,649183393E0;8,778133392E-1;8,776606321E-1
1,708846535E2;5,048801303E-1;9,453139901E-1;8,063421249E-1
1,709846535E2;-1,846340179E0;-1,160643995E-1;-1,446528912E0
1,710846535E2;-2,215760946E0;-2,609921694E-1;-2,643061161E0
1,711846535E2;-1,116967082E0;-9,506590366E-1;-2,278985500E0
1,712846535E2;-1,266629100E0;-2,933680296E0;-1,114065528E0
1,713846535E2;5,746715069E-1;-2,127490997E0;6,574437022E-1
1,714846535E2;-4,419609904E-1;-1,215469122E0;-7,449501753E-1
1,715846535E2;7,574729323E-1;8,130616546E-1;-1,041525230E-1
1,716846535E2;2,592206717E0;2,012342930E0;1,855503201E0
1,717846535E2;1,096961260E0;-1,534646153E0;1,257160664E0
1,718846535E2;1,704466701E0;1,419498086E0;6,120869517E-1
1,719846535E2;5,006040931E-1;1,025642753E0;9,821186066E-1
1,720846535E2;1,652390510E-1;3,747658134E-1;1,130100712E-1
1,721846535E2;-2,059990406E0;4,395175576E-1;-2,773022890E0
1,722846535E2;-1,283733368E0;2,731178522E0;-1,906052232E0
1,723846535E2;-1,093754172E0;-2,610379934E0;-1,327715635E0
1,724846535E2;-7,788531948E-3;-2,213928461E0;-4,679227769E-1
1,725846535E2;-3,291036487E-1;-1,206917048E0;-5,372560024E-1
1,726846535E2;-6,337726712E-1;-9,140071273E-1;-3,000875413E-1
1,727846535E2;1,377195716E0;2,255925417E0;1,029766083E0
1,728846535E2;2,060906649E0;3,126102924E0;2,518291950E0
1,729846535E2;1,441947460E0;-5,115996301E-2;9,222537875E-1
1,730846535E2;1,369407177E0;1,494023681E0;6,563746929E-1
1,731846535E2;2,864958048E-1;8,382598162E-1;4,532620013E-1
1,732846535E2;-3,026837409E-1;4,569272101E-1;-4,295909703E-1
1,733846535E2;-1,850463510E0;3,312416673E-1;-2,250427485E0
1,734846535E2;-1,277166486E0;-1,736995339E0;-1,972483873E0
1,735846535E2;-9,702067375E-1;-3,060434818E0;-7,907650471E-1
1,736846535E2;-2,725986242E-1;-1,166294456E0;-3,572034538E-1
1,737846535E2;-7,591527700E-1;-8,103127480E-1;-6,524040699E-1
1,738846535E2;8,165740967E-1;6,244570017E-1;1,847867370E-1
1,739846535E2;2,040289879E0;2,397951603E0;1,781435728E0
1,740846535E2;1,291369081E0;-5,338962078E-1;1,225242972E0
1,741846535E2;1,033889413E0;6,166684628E-1;1,455386430E-1
1,742846535E2;2,489275932E-1;4,413501546E-2;9,137017131E-1
1,743846535E2;5,803219974E-3;6,435465217E-1;-3,926336467E-1
1,744846535E2;-1,837024450E0;3,526219726E-1;-2,316859245E0
1,745846535E2;-2,487748712E-1;1,045495868E0;-1,784337401E0
1,746846535E2;-7,619016767E-1;-3,116787195E0;-7,137960196E-1
1,747846535E2;7,301366925E-1;-1,832748413E0;1,392772794E-1
1,748846535E2;-7,588473558E-1;-6,591235995E-1;-7,000515461E-1
1,749846535E2;7,342600226E-1;4,444044828E-2;3,297145069E-1
1,750846535E2;1,767538548E0;2,095878601E0;1,723250866E0
1,751846535E2;1,820683837E0;1,597565293E0;2,596177340E0
1,752846535E2;1,357953429E0;7,956519723E-1;4,300491214E-1
1,753846535E2;5,760459304E-1;1,631010175E0;8,591819406E-1
1,754846535E2;-2,057088763E-1;2,919935882E-1;-3,639229834E-1
1,755846535E2;-2,563954115E0;8,881980777E-1;-2,603049517E0
1,756846535E2;-1,261436790E-1;-2,110539377E-1;-2,003943443E0
1,757846535E2;-7,565566301E-1;-2,980869770E0;-4,628831446E-1
1,758846535E2;5,065600276E-1;-1,800219893E0;2,099849284E-1
1,759846535E2;-1,054658890E0;-1,388954878E0;-4,561636150E-1
1,760846535E2;5,884159207E-1;6,328563690E-1;-3,097086847E-1
1,761846535E2;2,231643438E0;2,014939070E0;2,046856642E0
1,762846535E2;1,692249417E0;9,456194043E-1;1,990351677E0
1,763846535E2;1,280984402E0;1,307862520E0;6,229298115E-1
1,764846535E2;3,827070892E-1;1,142776132E0;1,080009699E0
1,765846535E2;-4,845688641E-1;3,462078869E-1;-4,795292318E-1
1,766846535E2;-2,464383125E0;9,089674950E-1;-3,033404112E0
1,767846535E2;-1,824959964E-1;-1,896278381E0;-2,285857677E0
1,768846535E2;-1,497230768E0;-2,347555161E0;-1,556026459E0
1,769846535E2;1,030987859E0;-1,954310656E0;3,765984178E-1
1,770846535E2;-3,396410644E-1;-8,248208165E-1;-3,714060783E-1
1,771846535E2;1,104291677E0;5,447390676E-1;2,887865305E-1
1,772846535E2;6,974554062E-1;1,231809735E0;2,170098722E-1
1,773846535E2;2,144442558E0;1,643991113E0;2,241111755E0
1,774846535E2;1,618792892E0;4,902193695E-2;1,144150615E0
1,775846535E2;3,115412891E-1;8,422304392E-1;1,117425203E0
1,776846535E2;1,055269688E-1;6,672175527E-1;5,123631954E-1
1,777846535E2;-2,563954115E0;1,256549835E0;-2,781574965E0
1,778846535E2;-1,604895711E0;1,649336219E0;-2,147344112E0
1,779846535E2;-1,233795047E0;-2,086562872E0;-1,433395267E0
1,780846535E2;-5,308418870E-1;-2,795013905E0;-5,374087095E-1
1,781846535E2;-5,459607840E-1;-1,366658211E0;-4,427245855E-1
1,782846535E2;5,574145317E-1;8,631525636E-1;1,435533315E-1
1,783846535E2;1,244332552E0;1,745547414E0;7,809911966E-1
1,784846535E2;2,346791506E0;6,656904221E-1;1,936442852E0
1,785846535E2;1,433853388E0;1,075122803E-1;1,077108145E0
1,786846535E2;2,223549485E-1;-1,101084575E-1;1,519374609E0
1,787846535E2;2,510656118E-1;3,608686328E-1;1,948660165E-1
1,788846535E2;-2,479501963E0;8,988882303E-1;-3,286607742E0
1,789846535E2;-1,320537925E0;2,684141874E0;-2,129323483E0
1,790846535E2;-1,508684397E0;-3,518431187E0;-1,190729022E0
1,791846535E2;-3,970624134E-2;-2,814561605E0;-3,956879675E-1
1,792846535E2;-5,870414972E-1;-9,280570149E-1;-9,769262671E-1
1,793846535E2;3,057380617E-1;-6,262896061E-1;1,343903504E-2
1,794846535E2;2,116037130E0;3,204446316E0;1,511127949E0
1,795846535E2;1,879479647E0;2,080148935E0;3,145345211E0
1,796846535E2;1,474628687E0;9,242390990E-1;3,622430861E-1
1,797846535E2;6,989825368E-1;1,583820820E0;8,784242272E-1
1,798846535E2;4,483750761E-1;6,811147332E-1;-1,646281779E-1
1,799846535E2;-1,561829686E0;-6,604980230E-1;-1,458898902E0
1,800846535E2;-1,790293336E0;2,599078894E0;-1,845729351E0
1,801846535E2;-7,156286240E-1;-9,766207933E-1;-2,400394917E0
1,802846535E2;-2,732094824E-1;-2,406656265E0;-2,638937831E-1
1,803846535E2;5,688682795E-1;-2,132683277E0;4,534147382E-1
1,804846535E2;2,302961946E-1;-9,798278809E-1;1,553124934E-1
1,805846535E2;7,257078886E-1;1,026100874E0;-5,726861581E-2
1,806846535E2;1,654223084E0;2,689334154E0;3,280498981E0
1,807846535E2;1,211193085E0;3,762930036E-1;2,301434875E-1
1,808846535E2;1,465312958E0;1,705383062E0;3,801108897E-1
1,809846535E2;1,864666194E-1;2,787072659E-1;4,786129296E-1
1,810846535E2;-1,007927656E-1;2,583959997E-1;-6,365215778E-1
1,811846535E2;-1,631468296E0;9,511171579E-1;-2,038762808E0
1,812846535E2;-4,022547603E-1;2,015855350E-2;-1,663233399E0
1,813846535E2;-8,388707042E-1;-2,786309004E0;-8,109236360E-1
1,814846535E2;6,310238242E-1;-1,411862254E0;1,053742543E-1
1,815846535E2;-6,224716902E-1;-7,446447611E-1;-7,014260292E-1
1,816846535E2;6,863071322E-1;-8,697193861E-1;1,814269722E-1
1,817846535E2;1,220661521E0;2,092518806E0;1,548237920E0
1,818846535E2;1,759597301E0;1,213331103E0;2,864041805E0
1,819846535E2;8,877398968E-1;3,072652221E-1;2,365575731E-1
1,820846535E2;1,496314406E0;1,486845970E0;4,938845634E-1
1,821846535E2;1,463022232E-1;5,665774941E-1;-1,417207420E-1
1,822846535E2;-1,766469598E0;-9,306532145E-1;-1,690416813E0
1,823846535E2;-1,207680583E0;2,437505007E0;-1,667051196E0
1,824846535E2;-9,628763199E-1;-1,437213182E0;-2,260201454E0
1,825846535E2;9,728029370E-2;-2,120465994E0;-2,877175212E-1
1,826846535E2;5,206099153E-1;-1,944384098E0;4,466952085E-1
1,827846535E2;1,696678251E-1;-7,774787545E-1;9,498954564E-2
1,828846535E2;2,486221492E-1;4,880813360E-1;-1,992947906E-1
1,829846535E2;1,720349193E0;2,106721401E0;2,762638092E0
1,830846535E2;1,671174645E0;-1,629483104E-1;1,316261888E0
1,831846535E2;9,931141734E-1;2,128101826E0;8,274169564E-1
1,832846535E2;2,926044464E-1;3,966042697E-1;5,803219974E-3
1,833846535E2;-1,535104394E0;-8,504771590E-1;-1,204015374E0
1,834846535E2;-1,211803913E0;2,039831877E0;-2,080148935E0
1,835846535E2;-1,461495042E0;-1,603063107E0;-3,081967831E0
1,836846535E2;-8,318457603E-1;-3,174819469E0;-5,557346344E-1
1,837846535E2;-1,103680730E0;-1,470810771E0;-5,758932233E-1
1,838846535E2;5,812382698E-1;-5,754350424E-1;-2,196060568E-1
1,839846535E2;1,526246786E0;1,619861960E0;7,087563872E-1
1,840846535E2;2,098169327E0;1,628872156E0;1,453859329E0
1,841846535E2;1,684766293E0;8,352054954E-1;2,620459080E0
1,842846535E2;1,920254946E0;1,700801611E0;2,991712391E-1
1,843846535E2;5,143485069E-1;7,541131377E-1;1,237460256E0
1,844846535E2;-1,814269722E-1;-2,467895597E-1;-5,665775016E-2
1,845846535E2;-1,720502019E0;-6,261368748E-3;-2,130697966E0
1,846846535E2;-5,590944290E-1;1,325577646E-1;-2,332130671E0
1,847846535E2;-1,727526903E0;-1,910328388E0;-2,860834599E0
1,848846535E2;-1,237002090E-1;-2,523484230E0;-1,776090711E-1
1,849846535E2;-9,618073106E-1;-2,495689869E0;-4,970915914E-1
1,850846535E2;1,799761772E0;-7,559457421E-2;3,417791128E-1
1,851846535E2;1,226311922E0;1,477835774E0;-4,673119262E-2
1,852846535E2;2,264782906E0;2,867554188E0;2,621070147E0
1,853846535E2;1,585500717E0;4,547891617E-1;2,247678757E0
1,854846535E2;1,644601941E0;8,591819406E-1;3,005456924E-1
1,855846535E2;-4,103487432E-1;5,884159207E-1;9,859365225E-1
1,856846535E2;-7,965682745E-1;-4,331034720E-1;-7,759515643E-1
1,857846535E2;-1,540143967E0;9,650143981E-1;-2,072818518E0
1,858846535E2;-6,459900141E-1;-8,600982428E-1;-1,836719036E0
1,859846535E2;-6,592763066E-1;-2,306321621E0;-7,157813311E-1
1,860846535E2;7,334964275E-1;-1,979508877E0;2,134974003E-1
1,861846535E2;-7,779368758E-1;-9,683741331E-1;-4,845688641E-1
1,862846535E2;3,966042697E-1;6,756169796E-1;-1,246165112E-1
1,863846535E2;2,310597897E0;1,858404756E0;2,521498919E0
1,864846535E2;1,682322860E0;8,078692853E-2;1,709811807E0
1,865846535E2;1,331380844E0;1,295950651E0;1,869247705E-1
1,866846535E2;4,543310404E-1;7,098253965E-1;1,024726391E0
1,867846535E2;1,634064466E-1;4,071416855E-1;-4,610505402E-1
1,868846535E2;-2,109164953E0;-1,492038369E-1;-1,892155051E0
1,869846535E2;-1,053589821E0;2,420095444E0;-1,754099607E0
1,870846535E2;-9,301950336E-1;-1,392009139E0;-2,279901743E0
1,871846535E2;4,269948006E-1;-1,904983282E0;-5,681046844E-2
1,872846535E2;-1,708895564E-1;-1,840689659E0;1,058324054E-1
1,873846535E2;2,081523389E-1;-6,918048859E-1;-5,696318299E-2
1,874846535E2;1,236544013E0;1,363909364E0;8,622363210E-1
1,875846535E2;1,567022085E0;1,481042743E0;2,792417765E0
1,876846535E2;1,273501277E0;-2,936734557E-1;6,873761415E-1
1,877846535E2;1,025184631E0;1,070999503E0;7,941248417E-1
1,878846535E2;1,449277848E-1;3,060434759E-1;1,223868489E0
1,879846535E2;-9,668469429E-1;-7,854200006E-1;-1,078788042E0
1,880846535E2;-2,415513992E0;7,843509912E-1;-2,162310362E0
1,881846535E2;-6,076582074E-1;-1,646739960E0;-2,427578449E0
1,882846535E2;-1,817324162E-1;-2,130087137E0;-6,120869517E-1
1,883846535E2;8,034405112E-1;-1,735315442E0;3,075706363E-1
1,884846535E2;-8,933904171E-1;-1,352913857E0;-4,802927971E-1
1,885846535E2;8,040513992E-1;1,056796908E-1;6,612616032E-2
1,886846535E2;2,183079720E0;1,473254204E0;1,755779386E0
1,887846535E2;1,610851645E0;1,747685432E0;2,478280306E0
1,888846535E2;1,090089083E0;7,499898076E-1;-7,223481685E-2
1,889846535E2;1,561371565E0;1,515098572E0;4,818199575E-1
1,890846535E2;8,429940045E-2;5,054909736E-2;4,205807149E-1
1,891846535E2;-5,696318150E-1;-1,601994038E-1;-9,925032854E-1
1,892846535E2;-1,601077795E0;1,703855872E0;-1,757001162E0
1,893846535E2;-4,732678533E-1;-1,229824424E0;-2,136959314E0
1,894846535E2;-2,504547536E-1;-2,468200922E0;-8,985827565E-1
1,895846535E2;9,016370773E-1;-1,853212476E0;2,700024247E-1
1,896846535E2;-6,466008425E-1;-7,754934430E-1;-5,111414790E-1
1,897846535E2;-5,192354787E-3;4,108068720E-2;-1,597412676E-1
1,898846535E2;2,235308647E0;2,192700863E0;1,878563404E0
1,899846535E2;1,221883178E0;4,981606007E-1;2,175596476E0
1,900846535E2;1,315956473E0;1,058629513E0;1,948660165E-1
1,901846535E2;1,536020637E0;1,259298682E0;5,519167781E-1
1,902846535E2;2,423607856E-1;4,109596014E-1;3,222314119E-1
1,903846535E2;-2,165517360E-1;4,375322461E-1;-7,376197577E-1
1,904846535E2;-1,950950861E0;1,089783549E0;-1,848783612E0
1,905846535E2;-5,439754725E-1;-7,298312783E-1;-1,897958279E0
1,906846535E2;-7,855727077E-1;-2,416277409E0;-8,944594264E-1
1,907846535E2;3,801108897E-1;-1,316414595E0;2,422080636E-1
1,908846535E2;-2,745839357E-1;-6,429356933E-1;-4,654793143E-1
1,909846535E2;6,621779203E-1;8,381071091E-1;5,390885845E-2
1,910846535E2;1,774410844E0;1,553888440E0;1,149037480E0
1,911846535E2;1,096808553E0;-3,927863538E-1;1,093906879E0
1,912846535E2;1,010829210E0;-5,253441259E-2;3,335324228E-1
1,913846535E2;1,087187409E0;9,450085163E-1;6,708827615E-1
1,914846535E2;2,483167201E-1;-2,677116990E-1;7,803803682E-1
1,915846535E2;-5,290092826E-1;-2,422080636E-1;-6,218608022E-1
1,916846535E2;-2,193006277E0;4,024074674E-1;-1,781435728E0
1,917846535E2;-8,743008971E-1;-8,457429409E-1;-1,762804389E0
1,918846535E2;-1,392925501E0;-8,710938692E-1;-1,548390627E0
1,919846535E2;7,690793276E-1;-1,056644201E0;6,017022580E-2
1,920846535E2;8,753699064E-1;-1,465618491E0;5,850561857E-1
1,921846535E2;-2,244929820E-1;-1,376890302E0;-1,728748679E-1
1,922846535E2;6,663012505E-1;4,447098970E-1;1,059851199E-1
1,923846535E2;1,601841331E0;2,229658127E0;1,934915662E0
1,924846535E2;1,250288486E0;4,667010605E-1;1,753946781E0
1,925846535E2;1,149801135E0;1,052215338E0;2,035708427E-1
1,926846535E2;1,146899462E0;9,634872079E-1;5,313000679E-1
1,927846535E2;1,664607823E-1;4,164573848E-1;3,434589803E-1
1,928846535E2;-3,054326167E-3;3,885102868E-1;-2,228130996E-1
1,929846535E2;-2,050063848E0;7,139487267E-1;-2,005928755E0
1,930846535E2;-9,604328871E-1;2,655278444E0;-1,779297709E0
1,931846535E2;-1,171792269E0;-2,357634306E0;-1,239140153E0
1,932846535E2;1,052978992E0;-1,390940189E0;4,621195495E-1
1,933846535E2;2,525927722E-1;-7,386888266E-1;6,719517708E-2
1,934846535E2;3,297145069E-1;-3,900374472E-1;1,033889428E-1
1,935846535E2;8,002334833E-1;9,289733171E-1;1,212567538E-1
1,936846535E2;9,792169929E-1;1,842216849E0;2,258216143E0
1,937846535E2;1,005636930E0;-3,953825235E-1;1,031293273E0
1,938846535E2;1,023199320E0;6,256787181E-1;6,646214128E-1
1,939846535E2;8,634580374E-1;5,421429276E-1;8,915578127E-1
1,940846535E2;2,315179259E-1;4,973970354E-1;1,450804919E-1
1,941846535E2;-6,258314252E-1;-4,995350540E-1;-7,002043128E-1
1,942846535E2;-1,689805984E0;1,388038516E0;-1,706604719E0
1,943846535E2;-6,397286057E-1;-1,333213449E-1;-1,638798714E0
1,944846535E2;-5,138903856E-1;-2,096336842E0;-9,158397317E-1
1,945846535E2;6,388123035E-1;-1,730581284E0;5,894849449E-2
1,946846535E2;-5,693264008E-1;-7,567093372E-1;-4,331034720E-1
1,947846535E2;3,115412891E-1;-6,977608204E-1;2,758056521E-1
1,948846535E2;1,915062547E0;2,598009825E0;1,361160517E0
1,949846535E2;8,500189781E-1;1,236238599E0;2,391232014E0
1,950846535E2;1,285871387E0;6,430884004E-1;3,918700516E-1
1,951846535E2;1,402699351E0;1,325272202E0;4,517348409E-1
1,952846535E2;2,628247738E-1;-1,267545391E-2;6,382014751E-1
1,953846535E2;2,467895597E-1;4,983133376E-1;-5,429064631E-1
1,954846535E2;-2,078469038E0;9,037751555E-1;-1,846492887E0
1,955846535E2;-1,423468709E0;2,182316065E0;-1,534646153E0
1,956846535E2;-1,083522201E0;-2,279443741E0;-1,135903955E0
1,957846535E2;1,408044398E-1;-1,860542774E0;2,797762752E-1
1,958846535E2;-7,432702780E-1;-1,007316828E0;-5,936083198E-1
1,959846535E2;2,518292069E-1;5,937610269E-1;-1,612684280E-1
1,960846535E2;1,718669415E0;2,377029419E0;1,430493712E0
1,961846535E2;9,353874326E-1;-1,077871680E0;1,548696160E0
1,962846535E2;1,188438296E0;-4,993823543E-2;4,344778955E-1
1,963846535E2;2,675589919E-1;4,993823543E-2;1,360549569E0
1,964846535E2;5,545129180E-1;-5,390885845E-2;7,919867635E-1
1,965846535E2;-1,408044338E0;-1,074664712E0;-1,070388675E0
1,966846535E2;-2,350304127E0;9,185886383E-1;-2,278527260E0
1,967846535E2;-9,644035101E-1;-1,655139327E0;-2,315790176E0
1,968846535E2;-1,291980028E0;-2,442239285E0;-1,238071084E0
1,969846535E2;1,080162525E0;-1,544420004E0;2,744311988E-1
1,970846535E2;-1,171334088E-1;-6,366742849E-1;-6,244570017E-1
1,971846535E2;7,716755271E-1;8,098546267E-1;9,789115191E-2
1,972846535E2;1,089478135E0;1,219745159E0;5,902485251E-1
1,973846535E2;1,573130727E0;5,316054821E-1;2,088395596E0
1,974846535E2;1,325119376E0;-1,957823038E-1;8,356636763E-1
1,975846535E2;6,018549800E-1;1,136056662E0;9,013316631E-1
1,976846535E2;3,422372639E-1;-1,719585657E-1;7,455610037E-1
1,977846535E2;-1,413694859E0;-7,168503404E-1;-1,078024387E0
1,978846535E2;-2,315637350E0;8,501716852E-1;-2,354274750E0
1,979846535E2;-9,877691269E-1;-1,680795670E0;-2,380694628E0
1,980846535E2;-1,339322090E0;-2,364048481E0;-1,207069755E0
1,981846535E2;1,316872716E0;-1,469436288E0;3,744603992E-1
1,982846535E2;-6,217080951E-1;-9,445503950E-1;-3,359758854E-1
1,983846535E2;1,083522201E0;9,506590366E-1;2,603813112E-1
1,984846535E2;1,815033317E0;2,316401005E0;2,217746258E0
1,985846535E2;1,496008992E0;1,609629989E-1;2,495384455E0
1,986846535E2;1,038165450E0;1,216385365E0;-1,695151068E-2
1,987846535E2;9,269880056E-1;1,092685223E0;8,657487631E-1
1,988846535E2;3,356704414E-1;8,017606139E-1;-1,414152980E-1
1,989846535E2;-1,151022792E0;-8,423831463E-1;-1,069930434E0
1,990846535E2;-1,740049601E0;2,409863472E0;-1,760055542E0
1,991846535E2;-8,770498037E-1;-1,264796495E0;-2,357023478E0
1,992846535E2;3,436116874E-2;-1,495398164E0;-2,522873580E-1
1,993846535E2;1,109331250E0;-1,700037956E0;3,555235863E-1
1,994846535E2;-7,385360599E-1;-1,110705733E0;-3,799581826E-1
1,995846535E2;2,658790946E-1;8,991936445E-1;6,887505949E-2
1,996846535E2;2,019520521E0;2,404365540E0;2,414597511E0
1,997846535E2;1,638798714E0;9,262244105E-1;1,808008432E0
1,998846535E2;9,825767279E-1;1,379944563E0;3,323107064E-1
1,999846535E2;1,206000686E0;1,325424910E0;7,816020846E-1
2,000846535E2;2,432770878E-1;3,897320330E-1;9,987647086E-2
2,001846535E2;-1,380555511E0;-5,592471361E-1;-1,253800869E0
2,002846535E2;-1,516931176E0;2,662150621E0;-1,790140629E0
2,003846535E2;-1,240820050E0;-1,790140629E0;-2,392148256E0
2,004846535E2;-3,878994286E-2;-1,864207983E0;-4,207334518E-1
2,005846535E2;1,112538338E0;-1,592983842E0;4,534147382E-1
2,006846535E2;-4,854851663E-1;-1,239598274E0;-1,661553532E-1
2,007846535E2;6,844745278E-1;1,063210964E0;7,855727077E-1
2,008846535E2;2,120465994E0;1,784642816E0;2,269669771E0
2,009846535E2;1,098946571E0;-4,670064747E-1;7,648032904E-1
2,010846535E2;8,217664957E-1;1,339780211E0;2,345722616E-1
2,011846535E2;6,154467165E-2;-4,211915731E-1;8,735373020E-1
2,012846535E2;1,261436790E-1;4,425718784E-1;-4,792237878E-1
2,013846535E2;-1,958892107E0;1,299157619E0;-2,273640394E0
2,014846535E2;-7,212791443E-1;-1,188132912E-1;-1,713935137E0
2,015846535E2;-1,015563488E0;-2,419331789E0;-7,338019013E-1
2,016846535E2;3,949243724E-1;-1,617418408E0;1,569923609E-1
2,017846535E2;-7,124215961E-1;-7,944302559E-1;-3,559817076E-1
2,018846535E2;4,673119187E-1;-3,506366611E-1;-8,918632567E-2
2,019846535E2;2,226298332E0;2,564106941E0;1,667662144E0
2,020846535E2;1,650099754E0;3,033709526E0;2,738661528E0
2,021846535E2;9,918924570E-1;4,834998548E-1;3,550654352E-1
2,022846535E2;1,331228137E0;1,868942261E0;4,909829497E-1
2,023846535E2;3,342960179E-1;4,105014503E-1;3,875939846E-1
2,024846535E2;-1,537853181E-1;5,806274414E-1;-6,878342628E-1
2,025846535E2;-1,617723942E0;1,772272825E0;-2,012953758E0
2,026846535E2;-6,519459486E-1;-1,003804326E0;-1,649488926E0
2,027846535E2;-8,058840036E-1;-2,292730093E0;-8,489499688E-1
2,028846535E2;8,327620625E-1;-1,641242146E0;1,004873365E-1
2,029846535E2;-9,317222238E-1;-9,314168096E-1;-5,520694852E-1
2,030846535E2;4,903720617E-1;1,153008118E-1;2,950479090E-1
