"Time (s)";"Gyroscope x (rad/s)";"Gyroscope y (rad/s)";"Gyroscope z (rad/s)"
1,582966500E-2;-4,899139404E-1;-8,513934612E-1;-1,266018152E-1
8,163494500E-2;-5,377141237E-1;-1,562746048E0;-1,218523502E0
1,816349450E-1;-1,409266114E0;-1,593900084E0;-5,917757154E-1
2,816349450E-1;3,649919853E-2;-1,517389297E0;2,895501256E-1
3,816349450E-1;-3,701843321E-1;-1,546099901E0;4,381431043E-1
4,816349450E-1;5,015203953E-1;2,306016348E-2;1,585042596E0
5,816349450E-1;1,543351054E0;-9,593638778E-1;4,967861474E-1
6,816349450E-1;-2,626720667E-1;-3,173292160E0;6,114761233E-1
7,816349450E-1;-5,665775016E-2;-2,977662563E0;1,017701507E0
8,816349450E-1;-4,066835344E-1;-4,292702675E0;3,701385260E0
9,816349450E-1;-2,602286041E-1;-2,963307381E0;5,129282951E0
1,081634945E0;7,005097270E-1;2,261728525E0;3,529579401E0
1,181634945E0;1,888184428E0;-1,839009762E0;3,179095507E0
1,281634945E0;1,450652242E0;-1,283580542E0;1,439198494E0
1,381634945E0;-7,333437204E-1;-3,008969545E0;-4,490928650E0
1,481634945E0;1,524108797E-1;-2,177581787E0;-2,970332146E0
1,581634945E0;-9,448558092E-1;1,545794487E0;3,937790155E0
1,681634945E0;0,000000000E0;4,984660447E-1;5,161811113E-1
1,781634945E0;-2,495384514E-1;-1,747380018E0;3,469561815E0
1,881634945E0;-6,589708924E-1;-4,857905805E-1;3,707951903E-1
1,981634945E0;1,592678428E0;-1,312749386E0;3,730095863E0
2,081634945E0;6,067419052E-1;-3,283553362E0;2,037540913E0
2,181634945E0;-1,038470939E-1;7,176139355E-1;-4,149302244E-1
2,281634945E0;-2,031126991E-2;-6,276640296E-2;-2,736676335E-1
2,381634945E0;-1,217148975E-1;1,657277465E0;3,769038618E-1
2,481634945E0;-2,774855494E-1;-3,202461004E-1;1,142623425E0
2,581634945E0;-1,786780834E0;-9,575312585E-2;1,555568337E0
2,681634945E0;-2,735607386E0;-1,336420417E0;2,313194036E0
2,781634945E0;-2,494926453E0;-8,868235946E-1;2,301129341E0
2,881634945E0;-2,393828154E0;-6,841690540E-1;1,689805984E0
2,981634945E0;-2,482861757E0;-2,377792895E-1;-1,082758680E-1
3,081634945E0;-2,224007607E0;-1,191187184E-2;-8,978192210E-1
3,181634945E0;-2,052812576E0;3,094032407E-1;-1,903150678E0
3,281634945E0;-1,839468002E0;-3,359758854E-2;-2,194227934E0
3,381634945E0;-1,596343637E0;1,629483104E-1;-2,257757902E0
3,481634945E0;-1,294423461E0;6,079636216E-1;-2,269364357E0
3,581634945E0;-1,878410578E-1;8,211556077E-1;-1,003040791E0
3,681634945E0;1,120937690E-1;1,202946424E0;-1,986839175E0
3,781634945E0;4,045455158E-1;1,485013366E0;-1,791362286E0
3,881634945E0;6,241515875E-1;2,391537428E-1;-1,179580808E0
3,981634945E0;1,167668939E0;1,170417786E0;-1,014494419E0
4,081634945E0;1,210734963E0;1,012356400E0;5,332853794E-1
4,181634945E0;7,208210230E-2;8,683449626E-1;6,962336898E-1
4,281634945E0;-2,370157093E-1;-8,704829961E-3;3,865249753E-1
4,381634945E0;-1,145372353E-2;2,541199327E-1;1,759291887E-1
4,481634945E0;-3,944662213E-1;-4,372268021E-1;-2,281581759E-1
4,581634945E0;-2,959642112E-1;-3,326161206E-1;1,214094684E-1
4,681634945E0;-4,045455158E-1;-5,700899959E-1;-6,517932415E-1
4,781634945E0;-7,354817390E-1;-6,165157557E-1;-5,083925724E-1
4,881634945E0;-1,431562662E0;-1,809841037E0;-4,257730842E-1
4,981634945E0;-1,601535916E0;-1,138652802E0;-5,998696685E-1
5,081634945E0;-1,113607287E0;2,406809032E-1;-1,433547974E0
5,181634945E0;-3,906483352E-1;6,695083380E-1;-8,610145450E-1
5,281634945E0;2,146885872E0;4,411974251E-1;-8,109235764E-2
5,381634945E0;2,190562725E0;-4,546364546E-1;8,475755155E-2
5,481634945E0;1,908648491E0;7,177666761E-3;2,214386463E-1
5,581634945E0;1,658041000E0;6,108652353E-1;1,244637966E-1
5,681634945E0;-7,144069076E-1;-8,717046976E-1;-2,932153046E-1
5,781634945E0;-6,869179606E-1;-2,367102914E-2;-8,336783648E-1
5,881634945E0;-8,536841869E-1;-8,280278444E-1;-1,333366156E0
5,981634945E0;-1,398881435E0;-9,521862268E-1;-1,050840974E0
6,081634945E0;-2,115426302E0;-8,512406945E-1;-9,877691269E-1
6,181634945E0;3,090978265E-1;6,143777370E-1;-1,000291854E-1
6,281634945E0;1,537242413E0;1,027475357E0;6,191119552E-1
6,381634945E0;2,352289438E0;3,240640163E-1;1,173014045E0
6,481634945E0;1,913840771E0;-1,811215430E-1;1,335198760E0
6,581634945E0;-1,226311997E-1;-3,940080702E-1;-5,070181563E-2
6,681634945E0;-8,208501935E-1;6,180428863E-1;-7,780895829E-1
6,781634945E0;-1,005789638E0;-7,506006956E-1;-1,262505770E0
6,881634945E0;-7,826710939E-1;-1,403462887E-1;-9,253081083E-1
6,981634945E0;-1,983479500E0;-9,659306407E-1;-5,815436840E-1
7,081634945E0;-1,338405728E0;-2,380847335E-1;-6,412557960E-1
7,181634945E0;7,376197577E-1;8,897252083E-1;5,396994352E-1
7,281634945E0;1,553888440E0;7,246388793E-1;1,221119642E0
7,381634945E0;2,000583649E0;3,802636266E-2;1,602452278E0
7,481634945E0;1,341307402E0;-2,806925774E-1;8,654433489E-1
7,581634945E0;-3,147483170E-1;-5,345070735E-3;-3,181080818E-1
7,681634945E0;-7,221954465E-1;2,941316068E-1;-9,920451641E-1
7,781634945E0;-1,315651059E0;-5,636758804E-1;-9,831876159E-1
7,881634945E0;-1,859473825E0;-5,141957998E-1;-8,361217976E-1
7,981634945E0;-1,184925914E0;-4,257730842E-1;-6,988298297E-1
8,081634945E0;4,184427112E-2;3,969096839E-1;-2,683225572E-1
8,181634945E0;1,499216080E0;6,916521788E-1;6,456845403E-1
8,281634945E0;2,129323483E0;4,416555762E-1;1,099557400E0
8,381634945E0;1,521818042E0;1,858557463E-1;1,461342335E0
8,481634945E0;1,059851170E0;2,229658216E-1;7,307475209E-1
8,581634945E0;-4,755585790E-1;3,436116874E-1;-9,124799371E-1
8,681634945E0;-7,703011036E-1;-5,899431109E-1;-8,368853927E-1
8,781634945E0;-1,216538191E0;-1,288925707E-1;-5,482515693E-1
8,881634945E0;-2,067015171E0;-5,497786999E-1;-4,010330439E-1
8,981634945E0;-1,672396302E0;-1,199433923E0;-3,365867436E-1
9,081634945E0;3,828597963E-1;6,169738770E-1;4,095851481E-1
9,181634945E0;1,030376911E0;5,795583725E-1;8,347473741E-1
9,281634945E0;2,112524748E0;-1,438587606E-1;1,292438149E0
9,381634945E0;1,713018894E0;-1,014036313E-1;1,456455469E0
9,481634945E0;1,524108797E-1;-5,093088746E-1;3,665191308E-2
9,581634945E0;-5,484042764E-1;-5,891795158E-1;-1,232420653E-1
9,681634945E0;-4,805982411E-1;-6,160575747E-1;-6,771441102E-1
9,781634945E0;-8,141306639E-1;-3,862195611E-1;-9,683741331E-1
9,881634945E0;-1,599092484E0;-7,516697049E-1;-7,440338731E-1
9,981634945E0;-1,642158508E0;-7,092145681E-1;-6,273586154E-1
1,008163495E1;-1,000139117E0;-3,065016270E-1;-9,367618561E-1
1,018163494E1;2,098322064E-1;3,431535661E-1;-5,708535910E-1
1,028163494E1;1,813048005E0;2,590068579E-1;6,255260110E-1
1,038163494E1;1,862986326E0;1,243110746E-1;1,131016970E0
1,048163495E1;1,554041147E0;-3,254384696E-1;8,613200188E-1
1,058163495E1;7,948883772E-1;-2,133446932E-1;5,032002330E-1
1,068163494E1;-4,980078936E-1;-1,798998117E-1;-4,254676402E-1
1,078163494E1;-2,669481039E-1;1,913535446E-1;-6,629415154E-1
1,088163494E1;-1,147510409E0;-6,957755089E-1;-1,044579625E0
1,098163495E1;-1,439656615E0;-2,417499274E-1;-1,175915599E0
1,108163495E1;-2,061059237E0;-8,443684578E-1;-7,930558324E-1
1,118163494E1;5,283984542E-1;7,554876208E-1;-5,418374538E-1
1,128163494E1;1,106124282E0;6,070473194E-1;1,359175146E-1
1,138163494E1;1,935984731E0;4,471533597E-1;9,550877810E-1
1,148163495E1;1,732261062E0;-1,954768747E-1;1,167516232E0
1,158163495E1;1,162476540E0;-3,689626157E-1;2,895501256E-1
1,168163494E1;2,382374406E-1;-9,772316813E-1;-5,809328556E-1
1,178163494E1;-1,252273750E-2;4,227187634E-1;-8,472700715E-1
1,188163494E1;-6,189591885E-1;-4,543310404E-1;-1,081689596E0
1,198163495E1;-1,445918083E0;-1,937969923E-1;-9,187413454E-1
1,208163495E1;-1,841300607E0;-6,288857460E-1;-8,286387324E-1
1,218163494E1;-7,727445364E-1;3,755294085E-1;-5,332853794E-1
1,228163494E1;4,795292020E-2;6,273586154E-1;-1,565342247E-1
1,238163494E1;1,474323273E0;9,213374853E-1;1,146135926E0
1,248163495E1;1,795943856E0;6,290385127E-1;1,449735999E0
1,258163495E1;1,487609625E0;-4,802927971E-1;1,375057697E0
1,268163494E1;9,483683109E-1;4,080579877E-1;4,138612151E-1
1,278163494E1;-2,306016237E-1;3,891211748E-1;-4,543310404E-1
1,288163494E1;-8,587238193E-1;1,473712474E-1;-8,121453524E-1
1,298163495E1;-1,409266114E0;-4,682282209E-1;-1,039845347E0
1,308163495E1;-1,539533138E0;-5,019785166E-1;-8,857545853E-1
1,318163494E1;-1,416443825E0;-1,126588225E0;-8,278751373E-1
1,328163494E1;-7,353290319E-1;-1,157589629E-1;-6,400340796E-1
1,338163494E1;1,294423461E0;3,515529633E-1;6,145304441E-1
1,348163495E1;2,156201601E0;8,214610219E-1;1,028849840E0
1,358163495E1;1,833512068E0;5,540547967E-1;1,169806957E0
1,368163494E1;7,318165898E-1;-5,809328556E-1;5,280929804E-1
1,378163494E1;-1,052215397E-1;5,742133260E-1;-3,941608071E-1
1,388163494E1;-8,669704795E-1;8,964447379E-1;-6,713408828E-1
1,398163495E1;-1,065196276E0;-3,889684379E-1;-8,483390808E-1
1,408163495E1;-1,385595083E0;-2,046398520E-1;5,971207842E-2
1,418163494E1;-2,275778532E0;-8,013024926E-1;-8,306240439E-1
1,428163494E1;-4,621195495E-1;9,407325089E-2;-2,994766831E-1
1,438163494E1;3,517056704E-1;4,648684561E-1;6,994406879E-2
1,448163495E1;1,770287514E0;5,332853794E-1;9,831876159E-1
1,458163495E1;1,669189334E0;4,579962194E-1;1,618487477E0
1,468163494E1;1,311069489E0;-5,958990455E-1;1,083064079E0
1,478163494E1;4,514294267E-1;2,240348309E-1;1,656972021E-1
1,488163494E1;-4,017966092E-1;4,673119187E-1;-4,517348409E-1
1,498163495E1;-6,693555713E-1;3,579670191E-1;-1,086881995E0
1,508163495E1;-1,407280803E0;-6,568328738E-1;-6,365215778E-1
1,518163494E1;-1,543809175E0;-6,940956116E-1;-6,649268270E-1
1,528163494E1;-1,419345379E0;-2,970332205E-1;-5,212207437E-1
1,538163495E1;-3,287982047E-1;1,867720485E-1;-3,121521473E-1
1,548163495E1;1,670563698E0;8,451320529E-1;9,369145632E-1
1,558163495E1;1,960266590E0;4,703662395E-1;1,360091448E0
1,568163494E1;1,864360690E0;4,060726762E-1;1,020603061E0
1,578163494E1;1,325730324E0;-4,129449129E-1;6,282749176E-1
1,588163495E1;-6,267477274E-1;4,578435123E-1;-6,049093008E-1
1,598163495E1;-9,934195876E-1;4,123340547E-2;-6,339253783E-1
1,608163494E1;-1,094517827E0;1,030071497E0;-1,032514930E0
1,618163495E1;-1,885282874E0;-6,717990637E-1;-2,880229652E-1
1,628163494E1;-1,804648638E0;-1,828014255E-1;-1,612684280E-1
1,638163495E1;4,961752892E-1;1,125061035E0;6,673702598E-1
1,648163494E1;9,764680862E-1;7,148650289E-1;1,277930140E0
1,658163494E1;1,779755950E0;2,354885489E-1;1,501354098E0
1,668163495E1;1,773647189E0;8,967501521E-1;1,283427835E0
1,678163494E1;-5,006040931E-1;-3,509420753E-1;6,093380973E-2
1,688163495E1;-6,067419052E-1;6,012440920E-1;-4,604396820E-1
1,698163494E1;-1,089172721E0;8,619308472E-1;-1,706299305E0
1,708163494E1;-1,793958545E0;-2,017382532E-1;-6,991352439E-1
1,718163495E1;-2,802649736E0;-8,929322958E-1;-8,419250250E-1
1,728163494E1;-1,319316268E0;-8,013024926E-1;-4,089742899E-1
1,738163495E1;1,183246017E0;4,685336351E-1;1,017396092E0
1,748163494E1;1,731344819E0;5,471825600E-1;1,205695271E0
1,758163494E1;1,630552053E0;-1,704314053E-1;1,263880134E0
1,768163495E1;1,329395533E0;-2,171625942E-1;1,171792269E0
1,778163494E1;2,901609987E-3;-5,013676286E-1;-8,979719132E-2
1,788163495E1;-5,852088928E-1;5,215262175E-1;-7,573201656E-1
1,798163494E1;-1,338253021E0;-2,370157093E-1;-1,397965074E0
1,808163494E1;-1,534951687E0;-8,355109096E-1;-1,156520605E0
1,818163495E1;-1,297019601E0;-3,801108897E-1;-5,679519773E-1
1,828163494E1;-3,233004212E-1;2,354885489E-1;-2,104430795E-1
1,838163495E1;1,675603390E0;9,596692920E-1;1,363145828E0
1,848163494E1;1,794874787E0;3,678936064E-1;1,735620856E0
1,858163494E1;1,205542564E0;-2,994766831E-1;1,515403986E0
1,868163495E1;-2,612976134E-1;-6,643159688E-2;-1,919644028E-1
1,878163494E1;-4,650211632E-1;5,616905689E-1;-8,439103365E-1
1,888163495E1;-1,390940189E0;-7,072292566E-1;-1,397659659E0
1,898163494E1;-1,778076053E0;-8,414669037E-1;-9,683741331E-1
1,908163494E1;-1,413236737E0;-7,519751191E-1;-8,724682927E-1
1,918163495E1;-3,923282027E-1;1,004873365E-1;-5,009095073E-1
1,928163494E1;1,808313847E0;5,933028460E-1;9,676105380E-1
1,938163495E1;2,255925417E0;3,504839242E-1;1,306029916E0
1,948163494E1;1,944994926E0;-2,990185320E-1;1,171792269E0
1,958163494E1;1,081231475E0;-3,726277873E-2;4,156937897E-1
1,968163495E1;-4,428772926E-1;5,174028873E-1;-4,761694670E-1
1,978163494E1;-4,920519590E-1;3,652974069E-1;-5,235115290E-1
1,988163495E1;-6,111706495E-1;1,264491081E-1;-6,078109145E-2
1,998163494E1;-5,916230083E-1;5,986479297E-2;-3,130684420E-2
2,008163494E1;-6,403394938E-1;-3,052799106E-1;4,459316283E-2
2,018163495E1;-6,351471543E-1;-7,788532227E-2;5,742133409E-2
2,028163494E1;-8,145887852E-1;-9,094256163E-1;-5,158756971E-1
2,038163495E1;-4,277583957E-1;-7,105889916E-1;-3,193297982E-1
2,048163494E1;-8,975137472E-1;-1,999056488E-1;-1,071915746E0
2,058163494E1;-1,003957033E0;-1,439045787E0;-9,179777503E-1
2,068163495E1;-7,783950567E-1;-1,456913650E-1;-7,145596147E-1
2,078163494E1;1,014341712E0;5,229006410E-1;-7,849618047E-2
2,088163495E1;1,883450270E0;4,138612002E-2;6,200281978E-1
2,098163494E1;1,992031574E0;-3,309362531E-1;6,934847832E-1
2,108163494E1;8,043568134E-1;-5,745187402E-1;1,507309973E-1
2,118163495E1;-3,889684379E-1;3,405573666E-1;-1,101695418E0
2,128163494E1;-4,234823287E-1;-2,277000248E-1;-1,530522823E0
2,138163495E1;-9,262244105E-1;-7,932085395E-1;-1,488373160E0
2,148163494E1;-1,112843752E0;-8,263479471E-1;-1,118494272E0
2,158163494E1;-1,291063666E0;-7,353290319E-1;-8,604037166E-1
2,168163495E1;-6,317873597E-1;-3,738495409E-1;-7,759515643E-1
2,178163494E1;5,652030706E-1;2,904664278E-1;8,857546002E-2
2,188163495E1;1,327104688E0;6,052147150E-1;6,304129362E-1
2,198163494E1;1,786475420E0;-3,309362531E-1;7,296785116E-1
2,208163494E1;1,653001308E0;-3,962988257E-1;8,665123582E-1
2,218163495E1;8,158105612E-1;-7,657195926E-1;3,116939962E-1
2,228163494E1;9,834930301E-2;-1,561218858E0;-3,811798990E-1
2,238163495E1;-2,496911734E-1;1,684460938E-1;-1,358258843E0
2,248163494E1;-3,746131063E-1;-4,395175576E-1;-1,272585034E0
2,258163494E1;-1,245859623E0;-7,466300726E-1;-1,257618785E0
2,268163495E1;-1,612684250E0;-3,918700516E-1;-1,236544013E0
2,278163494E1;-1,116661668E0;-7,060074806E-1;-1,064279914E0
2,288163495E1;5,192354787E-3;7,173085213E-1;-5,470298529E-1
2,298163494E1;1,539838552E0;9,181304574E-1;9,214902520E-1
2,308163494E1;1,701259732E0;4,115704596E-1;1,384373307E0
2,318163495E1;1,671480060E0;-5,192354787E-3;1,165378213E0
2,328163494E1;1,148884773E0;-3,810271919E-1;7,654141784E-1
2,338163495E1;-9,819658846E-2;6,177374721E-1;-6,461427212E-1
2,348163494E1;-2,484694421E-1;4,952589869E-1;-5,902485251E-1
2,358163494E1;-8,477282524E-1;2,848159075E-1;-1,491885662E0
2,368163495E1;-1,455386400E0;-9,804387093E-1;-7,334964275E-1
2,378163494E1;-1,948660135E0;-8,767443299E-1;-8,058840036E-1
2,388163495E1;-4,324925840E-1;1,496619824E-2;-6,282749176E-1
2,398163495E1;3,426954150E-1;4,815145433E-1;-5,421429127E-2
2,408163494E1;1,525483251E0;4,932736754E-1;1,345125318E0
2,418163495E1;1,684155464E0;3,428481221E-1;1,619403720E0
2,428163494E1;1,201724648E0;-6,669121385E-1;8,808676600E-1
2,438163495E1;5,299255848E-1;1,713477075E-1;1,933388561E-1
2,448163495E1;-8,109235764E-2;1,976149082E-1;-6,514877677E-1
2,458163494E1;-6,195700765E-1;-2,912299931E-1;-1,152702689E0
2,468163495E1;-1,234864116E0;-7,971791625E-1;-8,804095387E-1
2,478163494E1;-1,778534174E0;-6,655376554E-1;-1,199433923E0
2,488163495E1;-1,345736146E0;-4,387539625E-1;-5,677992702E-1
2,498163495E1;2,504547499E-2;2,594650090E-1;-4,624249935E-1
2,508163494E1;1,608713627E0;1,247997642E0;1,081689596E0
2,518163495E1;1,617723942E0;6,253733039E-1;1,479057431E0
2,528163494E1;1,665982246E0;3,729332387E-1;1,675756097E0
2,538163495E1;7,733554244E-1;-3,339905739E-1;1,054353356E0
2,548163495E1;-3,791945875E-1;1,798998117E-1;-5,667302608E-1
2,558163494E1;-5,218316317E-1;2,005165219E-1;-6,269004345E-1
2,568163495E1;-1,287551165E0;-7,396050692E-1;-1,132391453E0
2,578163494E1;-1,867415071E0;-2,904664278E-1;-1,204779029E0
2,588163495E1;-1,835344672E0;-6,737843752E-1;-7,052439451E-1
2,598163495E1;-6,343835592E-1;2,113593817E-1;-3,982841372E-1
2,608163494E1;1,039998055E0;5,358815193E-1;1,155757070E0
2,618163495E1;1,643532991E0;-9,514226019E-2;1,503797531E0
2,628163494E1;1,328479171E0;-1,623374373E-1;1,764789701E0
2,638163495E1;-4,856378585E-2;-1,654528499E0;8,350527883E-1
2,648163495E1;-2,318233550E-1;3,869831264E-1;-7,802276611E-1
2,658163494E1;-4,966334403E-1;1,114829108E-1;-1,112843752E0
2,668163495E1;-1,381624460E0;-8,104654551E-1;-1,568396568E0
2,678163494E1;-2,098169327E0;-8,588765264E-1;-6,797403097E-1
2,688163495E1;-1,896736622E0;-4,993823469E-1;-5,761986375E-1
2,698163495E1;7,220427394E-1;9,582948685E-1;1,996002197E-1
2,708163494E1;1,153771758E0;8,226827979E-1;1,112843752E0
2,718163495E1;1,758528352E0;4,340197444E-1;1,681101203E0
2,728163494E1;1,592831135E0;-7,635815418E-4;1,595732689E0
2,738163495E1;3,556762934E-1;-9,063712955E-1;4,699080884E-1
2,748163495E1;-6,750060618E-2;6,015495658E-1;-4,502076805E-1
2,758163494E1;-7,666358948E-1;1,131627858E-1;-1,224479437E0
2,768163495E1;-9,772316813E-1;3,278819323E-1;-1,734093666E0
2,778163494E1;-2,305710793E0;-9,323330522E-1;-1,210124016E0
2,788163495E1;-1,513876796E0;-7,469354868E-1;-6,504187584E-1
2,798163495E1;6,218608022E-1;7,350236177E-1;3,378084898E-1
2,808163494E1;1,358869791E0;9,066767693E-1;1,276250243E0
2,818163495E1;1,650252461E0;8,338310719E-1;2,065335512E0
2,828163494E1;1,455997348E0;-2,561052442E-1;1,701259732E0
2,838163495E1;-2,506074607E-1;-7,611380816E-1;-1,803579628E-1
2,848163495E1;-2,678644061E-1;3,929390609E-1;-4,198171496E-1
2,858163494E1;-8,280278444E-1;-8,759807348E-1;-8,981246352E-1
2,868163495E1;-1,857335806E0;-3,535382748E-1;-1,011898279E0
2,878163494E1;-2,506532907E0;-8,051204085E-1;-9,045386910E-1
2,888163495E1;-3,772092983E-2;3,970623948E-3;-1,879937798E-1
2,898163495E1;8,987354636E-1;6,087272167E-1;6,563746929E-1
2,908163494E1;1,748449087E0;4,425718784E-1;1,660942554E0
2,918163495E1;1,971109390E0;3,819434941E-1;1,724778056E0
2,928163494E1;8,301658630E-1;-2,683225572E-1;8,625417352E-1
2,938163495E1;-1,873829067E-1;-8,659014851E-2;-2,266310006E-1
2,948163495E1;-7,142542005E-1;-1,466076635E-2;-1,015563488E0
2,958163494E1;-9,824240208E-1;-1,368338168E-1;-1,653917670E0
2,968163495E1;-1,680032134E0;-7,541131377E-1;-7,768678665E-1
2,978163494E1;-1,103833556E0;-4,338670373E-1;-6,298020482E-1
2,988163495E1;1,156062484E-1;6,475171447E-1;-1,269072592E-1
2,998163495E1;1,582599163E0;7,672467232E-1;1,494176388E0
3,008163494E1;1,979050636E0;5,360342264E-1;1,893224120E0
3,018163495E1;1,145066857E0;-1,116356254E0;1,353677392E0
3,028163494E1;2,492330223E-1;-7,447974682E-1;3,286454976E-1
3,038163495E1;-3,428481221E-1;3,061962128E-1;-7,756461501E-1
3,048163495E1;-5,667302608E-1;-1,330159009E-1;-1,257618785E0
3,058163494E1;-1,391092896E0;-7,447974682E-1;-8,791878223E-1
3,068163495E1;-2,199573040E0;-9,821186066E-1;-1,050382733E0
3,078163494E1;-2,698497176E-1;-1,343903504E-2;-6,959282160E-1
3,088163495E1;5,491678715E-1;5,529857874E-1;-2,107485011E-2
3,098163495E1;1,728137732E0;7,900014520E-1;1,534035325E0
3,108163494E1;1,672396302E0;5,068654418E-1;2,138792038E0
3,118163495E1;9,428704977E-1;-1,013120055E0;1,160338521E0
3,128163494E1;-7,116580009E-2;-5,644394755E-1;-8,674286306E-2
3,138163495E1;-5,826127529E-1;3,811798990E-1;-9,141598344E-1
3,148163495E1;-1,069625020E0;-3,677408695E-1;-1,365894675E0
3,158163494E1;-2,083355904E0;-6,887505651E-1;-1,079093456E0
3,168163495E1;-1,897652864E0;-8,350527883E-1;-8,260425329E-1
3,178163494E1;-2,535090782E-2;4,906775057E-1;-3,176499158E-2
3,188163495E1;1,056796908E0;9,378308654E-1;7,507534027E-1
3,198163495E1;1,832901120E0;5,313000679E-1;1,994933128E0
3,208163495E1;1,578323126E0;1,887573600E-1;2,031279564E0
3,218163494E1;5,404630303E-1;-3,678936064E-1;2,379320115E-1
3,228163494E1;-5,728389025E-1;-1,142318025E-1;-1,033431292E0
3,238163494E1;-9,610437751E-1;-3,257438838E-1;-1,432784438E0
3,248163494E1;-1,965153456E0;-1,034805775E0;-1,091768861E0
3,258163495E1;-2,164906502E0;-9,644035101E-1;-8,083274364E-1
3,268163494E1;-2,084577680E-1;9,010262042E-2;-3,972151279E-1
3,278163494E1;9,729556441E-1;9,790642858E-1;4,809036553E-1
3,288163494E1;1,772272825E0;6,276640296E-1;1,750739813E0
3,298163494E1;1,592067599E0;6,296493411E-1;1,879479647E0
3,308163495E1;5,948300362E-1;-4,987714589E-1;4,021020532E-1
3,318163494E1;-4,199698567E-2;-4,868595898E-1;-4,056145251E-1
3,328163494E1;-7,730499506E-1;-2,385428846E-1;-1,212720275E0
3,338163494E1;-1,284038782E0;-2,264782935E-1;-1,908648491E0
3,348163494E1;-2,304794550E0;-1,057407737E0;-7,887797356E-1
3,358163495E1;-1,694082022E0;-5,994115472E-1;-6,267477274E-1
3,368163494E1;8,778133392E-1;8,087855577E-1;8,345946670E-1
3,378163494E1;1,485929728E0;8,914051056E-1;1,448972344E0
3,388163494E1;1,729817629E0;4,596760869E-2;2,012800932E0
3,398163494E1;8,860600591E-1;-6,349944472E-1;1,395521641E0
3,408163495E1;-3,909537494E-1;-1,197754025E0;1,298088674E-2
3,418163494E1;-6,406449080E-1;2,145664245E-1;-1,256244421E0
3,428163494E1;-1,008080363E0;-2,892446816E-1;-2,060601234E0
3,438163494E1;-1,549612403E0;-1,415374756E0;-1,269683361E0
3,448163494E1;-1,035569310E0;-9,590584636E-1;-1,032973170E0
3,458163495E1;-1,487456858E-1;2,687807083E-1;-5,215262175E-1
3,468163494E1;1,646434546E0;1,145525098E0;1,343292713E0
3,478163494E1;1,602299571E0;3,032945991E-1;2,078010798E0
3,488163494E1;1,178817153E0;1,902845204E-1;1,101084590E0
3,498163494E1;-2,127338201E-1;4,051563740E-1;-4,276056588E-1
3,508163495E1;-6,623306274E-1;4,450153410E-1;-1,154993415E0
3,518163494E1;-1,181413412E0;2,035708427E-1;-1,658193707E0
3,528163494E1;-2,032501459E0;-5,534439087E-1;-1,277013779E0
3,538163494E1;-9,688322544E-1;-7,974845767E-1;-6,533203721E-1
3,548163494E1;2,794708498E-2;5,995642543E-1;5,925392732E-2
3,558163495E1;1,614211440E0;8,089383245E-1;1,621847272E0
3,568163494E1;1,803426862E0;4,367686510E-1;2,220495224E0
3,578163494E1;1,277166486E0;-4,595233798E-1;1,268003583E0
3,588163494E1;5,386304259E-1;1,889100820E-1;-1,215621829E-1
3,598163494E1;-2,785545588E-1;-5,100724846E-2;-7,397578359E-1
3,608163495E1;-6,873761415E-1;-7,156286240E-1;-1,404073715E0
3,618163494E1;-2,056630611E0;-6,157521605E-1;-1,262963891E0
3,628163494E1;-1,908343077E0;-9,935722947E-1;-8,692612648E-1
3,638163494E1;1,484402567E-1;5,100724697E-1;6,337726861E-2
3,648163494E1;1,174999356E0;9,074403048E-1;1,125824690E0
3,658163495E1;1,689805984E0;8,214610219E-1;2,117717028E0
3,668163494E1;1,554804802E0;-2,945897579E-1;1,790293336E0
3,678163494E1;2,365575731E-1;-2,576324046E-1;-3,014619946E-1
3,688163494E1;-3,604104817E-1;7,131851465E-2;-6,400340796E-1
3,698163494E1;-1,209665895E0;-4,920519590E-1;-1,564425945E0
3,708163495E1;-1,420109034E0;-3,981314301E-1;-1,178053617E0
3,718163494E1;-1,821294785E0;-9,821186066E-1;-7,922922373E-1
3,728163494E1;5,925393105E-1;7,425066829E-1;3,634648323E-1
3,738163494E1;1,453859329E0;7,820602059E-1;1,347263336E0
3,748163494E1;1,866346002E0;1,272126883E-1;1,880548716E0
3,758163495E1;1,560760736E0;-1,093448773E-1;1,607950091E0
3,768163494E1;1,191187184E-2;-2,408336252E-1;-2,959642112E-1
3,778163494E1;-4,607451260E-1;9,250026941E-1;-9,720393419E-1
3,788163494E1;-8,362745047E-1;-7,765624523E-1;-1,344361663E0
3,798163494E1;-1,600161552E0;-8,087855577E-1;-1,765095115E0
3,808163495E1;-1,713782430E0;-1,028697014E0;-8,689557910E-1
3,818163494E1;-2,512183189E-1;3,323107064E-1;-2,910772860E-1
3,828163494E1;1,497536182E0;1,191492677E0;1,398728728E0
3,838163494E1;1,572367191E0;1,020755768E0;1,933235765E0
3,848163494E1;1,261436701E0;9,896016866E-2;1,692554832E0
3,858163495E1;8,016079068E-1;-6,352998614E-1;9,744827747E-1
3,868163494E1;-5,487096906E-1;4,245513380E-1;-1,151328325E0
3,878163494E1;-8,991936445E-1;3,216205537E-1;-1,246623278E0
3,888163494E1;-1,532202721E0;-1,226159215E0;-1,167210817E0
3,898163494E1;-1,947743893E0;-9,184358716E-1;-9,005680680E-1
3,908163495E1;-2,542726696E-1;4,886921868E-2;-3,065016270E-1
3,918163494E1;9,069821835E-1;8,184067011E-1;6,649268270E-1
3,928163494E1;1,974621892E0;2,721404731E-1;1,737148046E0
3,938163494E1;1,725847006E0;1,753183305E-1;2,075262070E0
3,948163494E1;3,807217777E-1;-3,307835162E-1;3,478877544E-1
3,958163495E1;-3,121521473E-1;4,062253982E-2;-4,888449013E-1
3,968163494E1;-8,660541773E-1;4,550946131E-2;-2,225840330E0
3,978163494E1;-1,784642816E0;-7,057020664E-1;-1,151022792E0
3,988163494E1;-2,032348633E0;-1,039539933E0;-1,094823241E0
3,998163494E1;1,771509200E-1;3,413209617E-1;-8,032877743E-2
4,008163495E1;1,013730884E0;1,254411817E0;1,286024094E0
4,018163494E1;1,518152833E0;2,651155293E-1;2,273182392E0
4,028163494E1;1,513113260E0;-5,626068711E-1;2,142762661E0
4,038163494E1;-7,483099122E-3;-3,512475267E-2;-4,998404980E-1
4,048163494E1;-3,306308091E-1;1,374446787E-3;-6,220135093E-1
4,058163495E1;-8,788823485E-1;-6,247624159E-1;-1,488831282E0
4,068163494E1;-1,853670597E0;-6,447682381E-1;-1,668731093E0
4,078163494E1;-1,288620234E0;-1,087492824E0;-8,197811842E-1
4,088163494E1;2,977968007E-2;4,295909703E-1;5,711590126E-2
4,098163494E1;1,535867929E0;7,725918293E-1;1,521970749E0
4,108163495E1;1,767080426E0;4,500549734E-1;2,255161762E0
4,118163495E1;8,897252083E-1;-1,113149166E0;1,373683214E0
4,128163494E1;2,767219543E-1;-8,032878041E-1;-4,016438872E-2
4,138163494E1;-6,511823535E-1;7,035640478E-1;-1,293507099E0
4,148163494E1;-9,097310901E-1;3,414736688E-1;-1,727832317E0
4,158163495E1;-1,920102239E0;-1,707521081E0;-1,055880547E0
4,168163495E1;-1,859779239E0;-6,334672570E-1;-1,132696867E0
4,178163494E1;5,374087095E-1;6,930266023E-1;1,217148975E-1
4,188163494E1;1,367574573E0;1,321912408E0;1,372003317E0
4,198163494E1;1,537089705E0;5,685628057E-1;2,305405378E0
4,208163495E1;1,157436967E0;-1,279762685E-1;1,941635132E0
4,218163495E1;5,711590126E-2;-3,937026560E-1;-1,226311997E-1
4,228163494E1;-6,154467463E-1;1,360702366E-1;-1,060462117E0
4,238163494E1;-1,184467673E0;-4,195117056E-1;-1,874898195E0
4,248163494E1;-2,049452782E0;-9,743300676E-1;-1,150259256E0
4,258163495E1;-1,435075164E0;-8,889616728E-1;-1,068708777E0
4,268163495E1;7,374670506E-1;8,031350970E-1;4,283692539E-1
4,278163494E1;1,529759288E0;1,541823864E0;1,687667966E0
4,288163494E1;1,578323126E0;4,854851663E-1;2,229352713E0
4,298163494E1;1,266170979E0;-5,986479297E-2;1,656971931E0
4,308163495E1;-2,803871334E-1;1,922698319E-1;-4,900666475E-1
4,318163495E1;-4,775438905E-1;-1,927279830E-1;-7,312057018E-1
4,328163494E1;-1,153771758E0;-5,674937963E-1;-1,590998530E0
4,338163494E1;-1,630704761E0;-4,590652287E-1;-1,542587519E0
4,348163494E1;-9,983065128E-1;-8,333728909E-1;-8,445212245E-1
4,358163495E1;-1,861611903E-1;2,950479090E-1;-2,965750694E-1
4,368163495E1;1,320996046E0;1,134987593E0;1,641242146E0
4,378163494E1;1,763262510E0;3,941608071E-1;2,158186913E0
4,388163494E1;1,127962708E0;-3,262020350E-1;1,691027761E0
4,398163494E1;2,680171132E-1;-3,999640048E-1;4,298964143E-1
4,408163495E1;-3,981314301E-1;1,261742115E0;-1,070083141E0
4,418163495E1;-7,935139537E-1;2,831360400E-1;-1,516931176E0
4,428163494E1;-1,294881582E0;-5,114469528E-1;-1,105207920E0
4,438163494E1;-1,585500717E0;-1,244485259E0;-1,026100874E0
4,448163494E1;-2,063197345E-1;1,831068546E-1;-4,535674453E-1
4,458163495E1;9,889908433E-1;8,231409192E-1;7,287622094E-1
4,468163495E1;1,802968740E0;6,267477274E-1;2,056630611E0
4,478163494E1;9,437867999E-1;2,383901626E-1;1,389565706E0
4,488163494E1;3,486513495E-1;-9,407325089E-2;3,426954150E-1
4,498163494E1;-3,055853248E-1;6,059783101E-1;-1,254564524E0
4,508163495E1;-7,014260292E-1;-1,108720452E-1;-1,330006361E0
4,518163495E1;-1,780061364E0;-6,395758986E-1;-1,390940189E0
4,528163494E1;-1,988671780E0;-1,211345792E0;-1,220050573E0
4,538163494E1;5,125159621E-1;6,617197990E-1;2,516764700E-1
4,548163494E1;1,272126913E0;8,758280277E-1;1,224021196E0
4,558163495E1;1,636660695E0;4,996877611E-1;2,236988544E0
4,568163495E1;1,054047942E0;-2,179261744E-1;1,798387289E0
4,578163494E1;-8,399397135E-3;-5,117523670E-1;1,270599663E-1
4,588163494E1;-1,627955884E-1;2,499966025E-1;-7,747298479E-1
4,598163494E1;-9,647089243E-1;-5,267185569E-1;-1,555415630E0
4,608163495E1;-1,363298535E0;-5,847507715E-1;-1,351081252E0
4,618163495E1;-1,603215814E0;-1,165989041E0;-1,080620646E0
4,628163494E1;-1,724167168E-1;2,582432926E-1;-5,841398835E-1
4,638163494E1;1,382693529E0;1,052368045E0;1,876883507E0
4,648163494E1;1,736995339E0;3,536909819E-1;2,008983135E0
4,658163495E1;1,108415008E0;-6,151412725E-1;1,734551907E0
4,668163495E1;5,949827433E-1;-1,649336219E-1;5,258022547E-1
4,678163494E1;-4,463897645E-1;1,548543423E-1;-1,013425469E0
4,688163494E1;-9,961684942E-1;-6,206390858E-1;-1,740049601E0
4,698163494E1;-2,326632977E0;-8,135197759E-1;-1,953241587E0
4,708163495E1;-1,534340739E0;-8,118399382E-1;-6,611089110E-1
4,718163495E1;1,026253626E-1;1,962404549E-1;-1,791362315E-1
4,728163494E1;1,340238333E0;6,108652353E-1;1,449735999E0
4,738163494E1;1,704313993E0;6,759223938E-1;2,490192175E0
4,748163494E1;8,287914395E-1;-5,728389025E-1;1,535409808E0
4,758163495E1;1,354593635E-1;-1,298088674E-2;-1,719585657E-1
4,768163495E1;-1,174388453E-1;3,080287874E-1;-1,339169383E0
4,778163494E1;-8,709411025E-1;-5,410739183E-1;-1,799914479E0
4,788163494E1;-1,778839588E0;-7,156286240E-1;-1,484249830E0
4,798163494E1;-1,546710849E0;-1,245706916E0;-8,171849847E-1
4,808163495E1;2,784018219E-1;7,881689072E-1;2,451096773E-1
4,818163495E1;9,082038999E-1;1,107040524E0;1,304197311E0
4,828163494E1;1,357037187E0;6,678284407E-1;2,459648848E0
4,838163494E1;1,128268123E0;-6,948592514E-2;1,941329718E0
4,848163494E1;2,429716438E-1;-2,690861523E-1;-2,231185287E-1
4,858163495E1;-4,590652287E-1;7,727445662E-2;-9,850202203E-1
4,868163495E1;-7,516697049E-1;-8,532260060E-1;-1,655902982E0
4,878163494E1;-1,574963331E0;-9,636399150E-1;-1,881464958E0
4,888163494E1;-1,273959517E0;-9,129381180E-1;-1,120174170E0
4,898163494E1;-9,208793938E-2;4,381431043E-1;-5,707008839E-1
4,908163495E1;1,293354392E0;1,127046347E0;1,375057697E0
4,918163495E1;1,530522823E0;8,071057200E-1;2,180941582E0
4,928163494E1;1,187063932E0;-9,590584040E-2;1,675450683E0
4,938163494E1;6,986771226E-1;-5,497787148E-3;4,344778955E-1
4,948163494E1;-4,421137273E-1;8,014551997E-1;-1,630704761E0
4,958163495E1;-6,049093008E-1;-5,054910183E-1;-1,447292447E0
4,968163495E1;-1,734704614E0;-7,473936081E-1;-1,572825313E0
4,978163494E1;-8,020660877E-1;-7,553348541E-1;-7,405213714E-1
4,988163494E1;9,514226019E-2;8,260425329E-1;-6,505715102E-2
4,998163494E1;1,308626056E0;8,950703144E-1;1,839315295E0
5,008163495E1;1,513418674E0;6,426302195E-1;2,277458429E0
5,018163495E1;9,969320893E-1;-2,678644061E-1;1,098641157E0
5,028163494E1;1,169806942E-1;-4,146247804E-1;1,128573567E-1
5,038163494E1;-5,164865851E-1;-2,895501256E-1;-1,193325281E0
5,048163494E1;-1,138041973E0;-8,358163834E-1;-1,709659100E0
5,058163495E1;-1,872760177E0;-5,989533663E-1;-1,312596679E0
5,068163495E1;-1,308473349E0;-1,293659925E0;-1,036638379E0
5,078163494E1;8,100073338E-1;1,161102057E0;5,914703012E-1
5,088163494E1;1,254411817E0;1,126435518E0;1,711949825E0
5,098163494E1;1,181718826E0;5,818491578E-1;2,439337730E0
5,108163495E1;9,439395070E-1;-3,767511547E-1;1,610546231E0
5,118163495E1;-1,939497143E-1;3,785837293E-1;-7,754934430E-1
5,128163494E1;-5,856670737E-1;-1,102611795E-1;-1,103680730E0
5,138163494E1;-1,158811331E0;-6,925684810E-1;-1,747380018E0
5,148163494E1;-1,910328388E0;-7,634288669E-1;-1,545489073E0
5,158163495E1;-2,970332205E-1;4,062253982E-2;-7,031059265E-1
5,168163495E1;4,321871698E-1;8,573493958E-1;3,932445049E-1
5,178163494E1;1,501048565E0;9,222537875E-1;2,192700863E0
5,188163494E1;1,532508135E0;-4,917465150E-2;2,436130524E0
5,198163494E1;7,819074988E-1;2,139555514E-1;6,989825368E-1
5,208163495E1;-1,087340117E-1;-2,838996351E-1;-3,914119005E-1
5,218163495E1;-5,978843570E-1;-3,718642294E-1;-1,318552613E0
5,228163494E1;-1,744631171E0;-1,027017236E0;-1,780061364E0
5,238163494E1;-1,689958692E0;-9,308059216E-1;-1,175610185E0
5,248163494E1;1,788308024E-1;5,090034604E-1;7,849618047E-2
5,258163495E1;1,011898279E0;1,378264666E0;1,213789225E0
5,268163495E1;1,242652655E0;6,768386960E-1;2,566550255E0
5,278163494E1;1,058629513E0;1,418734491E-1;2,180941582E0
5,288163494E1;-7,788531948E-3;-9,463829994E-1;-1,163698286E-1
5,298163494E1;-2,845104933E-1;2,516764700E-1;-6,916521788E-1
5,308163495E1;-1,027475357E0;-5,587889552E-1;-1,844660282E0
5,318163495E1;-1,429577351E0;-8,674286604E-1;-1,725236177E0
5,328163494E1;-1,030376911E0;-5,430592299E-1;-1,077413559E0
5,338163494E1;1,255328059E-1;4,266893864E-1;-1,333213449E-1
5,348163494E1;1,450346828E0;1,237154841E0;1,906968594E0
5,358163495E1;1,381319046E0;6,333145499E-1;2,352442026E0
5,368163495E1;8,400924206E-1;-1,783726513E-1;1,266934514E0
5,378163494E1;-7,941247895E-3;-3,032945991E-1;1,627955884E-1
5,388163494E1;-4,007275999E-1;1,261436790E-1;-1,289536476E0
5,398163494E1;-8,633053303E-1;-7,672467232E-1;-1,653154016E0
5,408163495E1;-1,830763102E0;-6,678284407E-1;-1,269072533E0
5,418163495E1;-1,064432740E0;-7,672467232E-1;-1,111011147E0
5,428163494E1;6,933320761E-1;9,161451459E-1;9,088147879E-1
5,438163494E1;1,323439598E0;1,290910959E0;1,824959874E0
5,448163494E1;1,145525098E0;-3,772092983E-2;2,289217472E0
5,458163495E1;8,449793458E-1;-1,789835095E-1;1,246012330E0
5,468163495E1;-2,866485119E-1;3,065016270E-1;-8,535314798E-1
5,478163494E1;-7,794640660E-1;-4,552473128E-1;-1,643380284E0
5,488163494E1;-1,329853654E0;-9,572258592E-1;-1,815949678E0
5,498163494E1;-1,158811331E0;-7,738135457E-1;-1,184773088E0
5,508163495E1;-5,314527452E-2;-3,695734590E-2;-5,009095073E-1
5,518163495E1;1,410029650E0;1,241125464E0;1,669494748E0
5,528163494E1;1,361924052E0;4,595233798E-1;2,130087137E0
5,538163494E1;9,137017131E-1;-5,659666657E-1;1,568701982E0
5,548163494E1;3,999640048E-1;-4,413501322E-1;4,059199691E-1
5,558163495E1;-1,928807050E-1;8,257371187E-1;-1,249982953E0
5,568163495E1;-5,928447247E-1;-6,203336716E-1;-1,625512362E0
5,578163494E1;-1,800678015E0;-9,130908251E-1;-1,379028320E0
5,588163494E1;-1,549612403E0;-8,274169564E-1;-1,315498352E0
5,598163494E1;3,133738637E-1;8,155050874E-1;4,842634201E-1
5,608163495E1;1,049008369E0;9,581421614E-1;1,419650793E0
5,618163495E1;1,253800869E0;4,886921942E-1;2,512030602E0
5,628163494E1;7,383833528E-1;-2,454151064E-1;1,816560507E0
5,638163494E1;-4,306599870E-2;-3,422372639E-1;-9,269879758E-2
5,648163494E1;-6,017022729E-1;5,642867684E-1;-1,401172161E0
5,658163495E1;-8,191702962E-1;-6,664539576E-1;-1,634980798E0
5,668163495E1;-9,190467596E-1;-1,056338668E0;-1,498147011E0
5,678163494E1;-1,014036298E0;-5,470298529E-1;-1,175457478E0
5,688163494E1;1,160643995E-2;4,447098970E-1;-4,071416855E-1
5,698163494E1;1,047023058E0;1,220661521E0;1,856877685E0
5,708163495E1;1,170112371E0;6,401867867E-1;2,220342398E0
5,718163495E1;3,862195611E-1;-3,920227587E-1;1,650557876E0
5,728163494E1;-3,023782969E-1;2,573269904E-1;-6,337726712E-1
5,738163494E1;-3,550654352E-1;-1,400408596E-1;-1,105360627E0
5,748163494E1;-8,920159936E-1;-3,721696436E-1;-1,759444594E0
5,758163495E1;-1,352913857E0;-7,768678665E-1;-1,630704761E0
5,768163495E1;-5,196936131E-1;-2,904664278E-1;-8,645270467E-1
5,778163494E1;3,139847219E-1;6,528622508E-1;3,090978265E-1
5,788163494E1;1,304808140E0;8,445212245E-1;2,165364504E0
5,798163494E1;1,324813962E0;8,265006542E-1;2,450638533E0
5,808163495E1;5,293147564E-1;-1,536326110E-1;9,853256345E-1
5,818163495E1;7,910704613E-2;-1,739438772E-1;-2,652682364E-1
5,828163494E1;-4,631885588E-1;4,285219610E-1;-1,137583852E0
5,838163494E1;-6,488916278E-1;4,077525437E-2;-1,973705649E0
5,848163494E1;-1,427744746E0;-9,894489646E-1;-1,352761030E0
5,858163495E1;-1,299615860E0;-1,236849427E0;-1,338863850E0
5,868163495E1;6,960809231E-1;9,871582389E-1;3,817907870E-1
5,878163494E1;1,229824424E0;1,332602501E0;1,647045374E0
5,888163494E1;1,195616007E0;4,821254015E-1;2,371684313E0
5,898163494E1;6,146831512E-1;-3,036000133E-1;1,710575461E0
5,908163495E1;1,056796908E-1;6,337726712E-1;-4,944954216E-1
5,918163495E1;-2,689334154E-1;4,625777006E-1;-8,077165484E-1
5,928163494E1;-9,098837972E-1;-2,657263726E-2;-1,645976424E0
5,938163494E1;-1,542587519E0;-8,095491529E-1;-1,833053827E0
5,948163494E1;-7,125743032E-1;-5,619960427E-1;-5,357288122E-1
5,958163495E1;9,040805697E-2;-1,747074574E-1;-1,224784851E-1
5,968163495E1;1,017701507E0;1,099099278E0;1,504866481E0
5,978163494E1;1,157284260E0;4,633412957E-1;2,364659309E0
5,988163494E1;8,216137290E-1;-1,592831165E-1;1,647809029E0
5,998163494E1;-2,232712507E-1;4,520402849E-1;-8,139779568E-1
6,008163495E1;-4,253149331E-1;2,617557645E-1;-1,498147011E0
6,018163495E1;-9,955576062E-1;-6,692028642E-1;-1,577406764E0
6,028163494E1;-1,421788812E0;-7,324274182E-1;-1,453248382E0
6,038163494E1;-7,356344461E-1;-2,460259795E-1;-7,878634334E-1
6,048163494E1;3,619376570E-2;3,071125150E-1;-7,116580009E-2
6,058163495E1;1,140179992E0;6,035348773E-1;1,930181503E0
6,068163495E1;1,249982953E0;7,826710939E-1;2,608394623E0
6,078163494E1;5,407684445E-1;-4,860960245E-1;1,130253434E0
6,088163494E1;3,153591752E-1;-5,988006592E-1;3,836233616E-1
6,098163494E1;-3,543018401E-1;2,406809032E-1;-9,447031021E-1
6,108163495E1;-8,038986921E-1;-1,476766765E-1;-5,271766782E-1
6,118163495E1;-6,831000447E-1;-1,074970126E0;-1,036638379E0
6,128163494E1;-6,485861540E-1;-2,700024247E-1;-1,096655846E0
6,138163494E1;2,168571576E-2;-3,698789179E-1;-4,584543705E-1
6,148163494E1;-7,009678334E-2;-5,461135507E-1;-1,678352207E-1
6,158163495E1;3,878994286E-1;1,860084683E-1;-3,100141138E-2
6,168163495E1;3,591887653E-1;2,764165103E-1;-9,896016866E-2
6,178163494E1;-8,659014851E-2;1,586722434E-1;-1,178969890E-1
6,188163494E1;-1,789835095E-1;-2,034181207E-1;-1,114829071E-2
6,198163494E1;-2,461786866E-1;2,199114859E-1;-3,787364438E-2
6,208163495E1;-1,209513173E-1;4,795292020E-2;-1,985312067E-2
6,218163495E1;-7,024950534E-2;1,742493063E-1;4,749477282E-2
6,228163494E1;-1,131627858E-1;3,378084898E-1;1,090394482E-1
6,238163494E1;1,466076635E-2;-1,374446787E-2;-4,306599870E-2
6,248163494E1;-1,435533315E-1;2,909245789E-1;1,653917581E-1
6,258163495E1;-3,011565804E-1;3,229950070E-1;1,514945775E-1
6,268163495E1;-3,938553631E-1;2,503020465E-1;1,960877478E-1
6,278163494E1;-6,010913849E-1;5,737552047E-1;1,388191283E-1
6,288163494E1;-6,023131609E-1;6,901249886E-1;1,715004146E-1
6,298163494E1;-3,853032589E-1;6,397286057E-1;6,265950203E-1
6,308163495E1;-6,424775124E-1;4,922046661E-1;2,538145185E-1
6,318163495E1;-6,023131609E-1;9,199630618E-1;5,305364728E-1
6,328163494E1;-9,175195694E-1;3,268128932E-1;4,676173329E-1
6,338163494E1;-6,209445000E-1;3,749185503E-1;5,616905689E-1
6,348163494E1;-1,530217379E-1;1,359175146E-1;1,977676302E-1
6,358163495E1;-2,176207453E-1;1,620320082E-1;4,260785133E-2
6,368163495E1;-7,043276429E-1;5,497787148E-2;-1,037554622E0
6,378163495E1;-1,056491494E0;-1,140790880E-1;-1,147204876E0
6,388163494E1;1,293507218E-1;7,040221691E-1;8,642216325E-1
6,398163494E1;3,211624026E-1;9,578366876E-1;1,100168347E0
6,408163494E1;4,053090811E-1;1,085049391E0;2,369240761E0
6,418163494E1;2,490803003E-1;8,677340746E-1;2,342057467E0
6,428163495E1;-2,397646159E-1;-7,437284291E-2;1,814269722E-1
6,438163494E1;-4,859432876E-1;-1,664607786E-2;-2,229658216E-1
6,448163495E1;-1,023352027E0;2,501493096E-1;-1,570840001E0
6,458163494E1;-1,136056662E0;-6,887505949E-2;-1,576795936E0
6,468163494E1;-1,381471753E0;-8,516988754E-1;-1,342834473E0
6,478163495E1;-1,220203340E-1;3,132211566E-1;-3,726277873E-2
6,488163494E1;3,430008292E-1;5,835290551E-1;1,119257808E0
6,498163495E1;1,039692640E0;7,382306457E-1;2,230727196E0
6,508163494E1;7,976372838E-1;2,360994220E-1;2,265851974E0
6,518163494E1;3,993531466E-1;1,000291854E-1;4,896084964E-1
6,528163495E1;-2,629774809E-1;1,012509167E-1;-5,177083015E-1
6,538163494E1;-2,150245607E-1;-3,255911767E-1;-1,351233959E0
6,548163495E1;-6,982190013E-1;-4,834998548E-1;-2,009288549E0
6,558163494E1;-1,595121861E0;-8,976664543E-1;-1,247386813E0
6,568163494E1;-1,242194533E0;-1,636355281E0;-6,148358583E-1
6,578163495E1;5,949827433E-1;1,051146388E0;1,078024387E0
6,588163494E1;9,118691087E-1;8,052731156E-1;1,673159957E0
6,598163495E1;1,068708777E0;5,206099153E-1;2,315942764E0
6,608163494E1;6,707300544E-1;-3,631593883E-1;1,821447492E0
6,618163494E1;2,076941878E-1;-2,968805134E-1;-4,430300295E-1
6,628163495E1;1,001819000E-1;3,181080818E-1;-1,013272762E0
6,638163494E1;-1,023199320E0;-4,627304152E-2;-1,807703018E0
6,648163495E1;-1,538005948E0;-3,736968040E-1;-1,826792479E0
6,658163494E1;-7,838928103E-1;-7,713701129E-1;-8,245153427E-1
6,668163494E1;1,896736622E-1;3,579670191E-1;-1,424843222E-1
6,678163495E1;1,189812779E0;9,857838154E-1;1,931403160E0
6,688163494E1;1,111774802E0;9,883799553E-1;2,517681122E0
6,698163495E1;5,323690772E-1;-1,982257664E-1;1,682322860E0
6,708163494E1;4,291328415E-2;-4,706716835E-1;1,656972021E-1
6,718163494E1;1,908953860E-2;4,963280261E-1;-1,357495308E0
6,728163495E1;-1,655750275E0;-5,360342264E-1;-2,001347303E0
6,738163494E1;-1,785864592E0;-5,751296282E-1;-1,521054506E0
6,748163495E1;-9,376781434E-2;-1,082758680E-1;-1,201877370E-1
6,758163494E1;7,568620443E-1;1,374752283E0;1,001513600E0
6,768163494E1;7,443392873E-1;6,750060916E-1;2,471713543E0
6,778163495E1;8,614727259E-1;-2,443460934E-2;2,288759470E0
6,788163494E1;2,544253767E-1;-9,395107627E-1;1,730275750E-1
6,798163495E1;-1,527163084E-3;5,268712640E-1;-9,993755221E-1
6,808163494E1;-5,783366561E-1;-3,194825351E-1;-2,458427191E0
6,818163494E1;-1,352302909E0;-7,423539758E-1;-1,852448821E0
6,828163495E1;-6,026185751E-1;-4,248567820E-1;-8,614727259E-1
6,838163494E1;3,025310040E-1;3,495676219E-1;-8,964447677E-2
6,848163495E1;1,017090678E0;1,806023121E0;2,198503971E0
6,858163494E1;6,244570017E-1;1,104291677E0;2,236224890E0
6,868163494E1;1,110247597E-1;-6,108652353E-1;1,247386813E0
6,878163495E1;-3,390302137E-2;-5,239696503E-1;-1,010981947E-1
6,888163494E1;-4,602869749E-1;8,399397135E-3;-1,236544013E0
6,898163495E1;-5,415320396E-1;-1,151480973E-1;-2,130239725E0
6,908163494E1;-1,671785474E0;-1,260520458E0;-1,683850050E0
6,918163494E1;-8,604037166E-1;3,130684420E-2;-1,241278172E0
6,928163495E1;8,026769161E-1;1,034194827E0;1,560455322E0
6,938163494E1;9,089674950E-1;1,331991673E0;2,267684460E0
6,948163495E1;5,227479339E-1;7,696902007E-2;2,202932835E0
6,958163494E1;3,010038435E-1;-3,300199509E-1;1,258382440E0
6,968163494E1;-6,765332818E-2;4,043927789E-1;-1,096503139E0
6,978163495E1;-6,423248053E-1;-5,248859525E-1;-1,726916075E0
6,988163494E1;-1,364062071E0;-3,451388776E-1;-1,933999419E0
6,998163495E1;-8,025242090E-1;-6,003278494E-1;-9,990701079E-1
7,008163494E1;3,909537569E-2;5,885686874E-1;-3,909537569E-2
7,018163494E1;5,757405162E-1;1,012509108E0;2,386345148E0
7,028163495E1;7,486153841E-1;8,869763613E-1;2,679407597E0
7,038163494E1;1,908953860E-2;-3,248275816E-1;1,288314819E0
7,048163495E1;-8,368854225E-2;-1,343903504E-2;-5,774203539E-1
7,058163494E1;-1,690569520E-1;-5,103778839E-1;-1,192714334E0
7,068163494E1;-8,400924206E-1;-2,828305960E-1;-1,940566182E0
7,078163495E1;-1,750434399E0;-7,273877859E-1;-1,718211174E0
7,088163494E1;-9,546296597E-1;-2,116648108E-1;-9,167560339E-1
7,098163495E1;7,654141784E-1;1,588249683E0;1,938275456E0
7,108163494E1;9,535606503E-1;7,603744864E-1;2,499660492E0
7,118163494E1;6,597344875E-1;-3,375030309E-2;1,913993478E0
7,128163495E1;2,883284092E-1;-1,014036313E-1;8,849910498E-1
7,138163494E1;-9,819658846E-2;5,580254197E-1;-1,530064702E0
7,148163495E1;-4,227187634E-1;-7,060074806E-1;-1,761735320E0
7,158163494E1;-1,829846859E0;-8,912523985E-1;-1,729206800E0
7,168163494E1;-1,031445980E0;-5,012149215E-1;-1,336267710E0
7,178163495E1;6,663012505E-1;1,328937292E0;1,265865445E0
7,188163494E1;9,556986690E-1;1,551750422E0;2,456289053E0
7,198163495E1;3,008511364E-1;-9,162978968E-4;2,472629786E0
7,208163494E1;2,328923792E-1;-2,238821089E-1;1,087034702E0
7,218163494E1;-1,947132945E-1;8,782715201E-1;-1,755932093E0
7,228163495E1;-8,909469843E-1;-3,796527386E-1;-2,016466141E0
7,238163494E1;-1,653459549E0;-1,258382440E0;-1,735010028E0
7,248163495E1;-1,970040351E-1;2,440406680E-1;-4,460843503E-1
7,258163494E1;5,407684445E-1;1,167516232E0;1,338253021E0
7,268163494E1;7,107416987E-1;9,043859839E-1;2,880687714E0
7,278163495E1;2,426662147E-1;-1,105666086E-1;2,549293280E0
7,288163494E1;-1,820378453E-1;-1,140790880E-1;-4,973970354E-1
7,298163495E1;-2,525927722E-1;2,967278063E-1;-1,411404133E0
7,308163494E1;-8,920159936E-1;-3,649919927E-1;-2,283566952E0
7,318163494E1;-1,502117634E0;-1,122006774E0;-1,886657357E0
7,328163495E1;4,276056588E-2;4,993823543E-2;-1,968513280E-1
7,338163494E1;9,981538057E-1;1,564273119E0;1,610851645E0
7,348163495E1;6,820310354E-1;3,677408695E-1;3,001791716E0
7,358163494E1;4,094324410E-1;-2,139555514E-1;2,350456715E0
7,368163494E1;-2,382374406E-1;-6,551529467E-2;-7,206682563E-1
7,378163495E1;-3,074179292E-1;4,773911834E-1;-1,687362552E0
7,388163494E1;-6,540839672E-1;-5,954409242E-1;-2,035403013E0
7,398163495E1;-1,068403363E0;-1,107345939E0;-1,638798714E0
7,408163494E1;-1,667662114E-1;1,134682223E-1;-6,104071140E-1
7,418163494E1;5,024366379E-1;8,851437569E-1;8,133670688E-1
7,428163495E1;9,999864101E-1;8,107708693E-1;2,376571178E0
7,438163494E1;6,629415154E-1;2,066251636E-1;2,722473621E0
7,448163495E1;-3,420845419E-2;-7,622070909E-1;5,010622144E-1
7,458163494E1;-1,963931769E-1;1,258382350E-1;-1,385136962E0
7,468163494E1;-2,919935882E-1;-3,358231783E-1;-1,834275603E0
7,478163495E1;-1,331380844E0;-8,477282524E-1;-1,639256835E0
7,488163494E1;-1,159727693E0;-9,753990769E-1;-1,415680170E0
7,498163495E1;4,144720733E-1;9,114109278E-1;8,326093554E-1
7,508163494E1;8,688030839E-1;1,420567155E0;1,833817482E0
7,518163494E1;5,774203539E-1;2,295326144E-1;2,689945221E0
7,528163495E1;3,488040566E-1;-2,904664278E-1;1,876272559E0
7,538163494E1;-9,010262042E-2;2,962696366E-2;-7,460191846E-1
7,548163495E1;-8,399397135E-2;4,008803070E-1;-1,512960553E0
7,558163494E1;-7,005097270E-1;-6,554583907E-1;-1,903608799E0
7,568163494E1;-1,325577617E0;-1,054506183E0;-1,690569520E0
7,578163495E1;-2,805398703E-1;-2,012801021E-1;-6,481280327E-1
7,588163494E1;3,872885704E-1;6,928738952E-1;5,372560024E-1
7,598163495E1;8,723155856E-1;8,016079068E-1;2,379472733E0
7,608163494E1;5,691736937E-1;2,926044464E-1;2,740188837E0
7,618163494E1;2,681698501E-1;-6,504187584E-1;7,107416987E-1
7,628163495E1;1,365283877E-1;-1,360702366E-1;-7,163922191E-1
7,638163494E1;-2,083050460E-1;-4,192062616E-1;-1,886810064E0
7,648163495E1;-7,596109509E-1;-3,375030458E-1;-2,139860868E0
7,658163494E1;-1,293812633E0;-1,126893640E0;-1,166599870E0
7,668163494E1;-4,100432992E-1;-1,145372316E-1;-5,705481172E-1
7,678163495E1;7,857254148E-1;1,469894528E0;1,773341775E0
7,688163494E1;8,222246170E-1;9,286679029E-1;2,575255156E0
7,698163495E1;2,976440787E-1;-3,701843321E-1;1,859931946E0
7,708163494E1;-5,482515693E-2;-9,575312585E-2;-8,228355050E-1
7,718163494E1;-2,611448988E-2;2,822197378E-1;-1,604743004E0
7,728163495E1;-7,654141784E-1;-6,323982477E-1;-2,153605461E0
7,738163494E1;-1,335504174E0;-1,014494419E0;-1,766316891E0
7,748163495E1;-2,855795063E-2;4,902193695E-2;-5,294674635E-1
7,758163494E1;6,032294035E-1;1,028086185E0;9,251554012E-1
7,768163494E1;9,344711304E-1;7,392996550E-1;2,696817398E0
7,778163495E1;5,739079118E-1;1,221730467E-2;2,653751373E0
7,788163494E1;2,260201424E-2;-6,278167367E-1;-4,031710699E-2
7,798163495E1;-8,750644326E-2;1,644754708E-1;-1,125671983E0
7,808163494E1;-3,162754774E-1;-3,613267839E-1;-2,226756573E0
7,818163494E1;-8,840747476E-1;-7,084509730E-1;-1,956448674E0
7,828163495E1;-7,600690722E-1;-4,767803252E-1;-1,058018565E0
7,838163494E1;-3,497203439E-2;4,712825418E-1;-8,307767659E-2
7,848163495E1;7,820602059E-1;1,151939154E0;2,402380228E0
7,858163494E1;7,438811660E-1;5,633704662E-1;2,882062197E0
7,868163494E1;1,634064466E-1;-4,813618064E-1;9,827294350E-1
7,878163495E1;-4,001167417E-2;-3,142901659E-1;-5,002986193E-1
7,888163494E1;-1,624901593E-1;-3,031418920E-1;-1,865887880E0
7,898163495E1;-5,335907936E-1;-3,885102868E-1;-2,215455532E0
7,908163494E1;-1,229671717E0;-9,718865752E-1;-1,348179579E0
7,918163494E1;-5,287038684E-1;-2,493857294E-1;-7,263187766E-1
7,928163495E1;8,613200188E-1;1,383762479E0;1,929570556E0
7,938163494E1;9,208793640E-1;7,286095023E-1;2,720182896E0
7,948163495E1;2,463314086E-1;-4,864014387E-1;1,838398933E0
7,958163494E1;-9,880745411E-2;1,304197311E-1;-9,647089243E-1
7,968163494E1;-1,191187203E-1;1,430951804E-1;-1,553277612E0
7,978163495E1;-7,965682745E-1;-5,125159621E-1;-1,968665957E0
7,988163494E1;-1,327868342E0;-9,538660645E-1;-1,633759141E0
7,998163495E1;5,849034712E-2;3,497203588E-1;-1,742493063E-1
8,008163494E1;6,914994717E-1;1,351539373E0;1,364672899E0
8,018163494E1;6,737843752E-1;5,587889552E-1;2,905427933E0
8,028163495E1;3,474296033E-1;-2,385428846E-1;2,445140839E0
8,038163494E1;2,351831272E-2;-4,578435123E-1;-4,199698567E-1
8,048163495E1;1,006400511E-1;2,203696370E-1;-1,450346828E0
8,058163494E1;-5,711590052E-1;-5,514585972E-1;-2,267684460E0
8,068163494E1;-1,204779029E0;-8,657487631E-1;-1,825418115E0
8,078163495E1;-4,144720733E-1;-2,948952019E-1;-7,290676832E-1
8,088163494E1;4,257730842E-1;1,143234253E0;6,426302195E-1
8,098163495E1;7,800748944E-1;8,432994485E-1;2,688265324E0
8,108163494E1;4,796819389E-1;-2,351831272E-2;2,871524811E0
8,118163494E1;7,788532227E-2;-7,672467232E-1;2,845104933E-1
8,128163495E1;4,214970022E-2;5,971207842E-2;-1,127657294E0
8,138163494E1;-4,470006526E-1;-3,356704414E-1;-2,362368584E0
8,148163495E1;-1,092227101E0;-4,344778955E-1;-2,103972673E0
8,158163494E1;-7,104362845E-1;-8,521570265E-2;-1,016021609E0
8,168163494E1;1,104138941E-1;5,117523670E-1;1,566869318E-1
8,178163495E1;9,378308654E-1;8,013024926E-1;2,475225925E0
8,188163494E1;7,379252315E-1;2,040289938E-1;2,797762871E0
8,198163495E1;1,270599663E-1;-7,008151412E-1;7,312057018E-1
8,208163494E1;1,618792862E-2;2,591595948E-1;-1,625359654E0
8,218163494E1;-2,145664245E-1;-3,570507467E-1;-2,080759764E0
8,228163495E1;-1,210734963E0;-6,214026809E-1;-1,799609065E0
8,238163494E1;-7,958046794E-1;-7,501425147E-1;-1,188591003E0
8,248163495E1;5,894849896E-1;1,522581577E0;1,192256212E0
8,258163494E1;8,339837790E-1;1,349095941E0;2,238973856E0
8,268163494E1;2,177734673E-1;-2,718350291E-2;2,568077564E0
8,278163495E1;-1,756237634E-2;-3,356704414E-1;1,351692080E0
8,288163494E1;-2,443460934E-2;5,679519773E-1;-1,467298269E0
8,298163495E1;-2,680171132E-1;-8,323039114E-2;-1,764789701E0
8,308163494E1;-1,386053205E0;-6,085745096E-1;-1,888184428E0
8,318163494E1;-1,240514636E0;-1,003651619E0;-1,303739190E0
8,328163495E1;1,649336219E-1;8,529205918E-1;7,493789196E-1
8,338163494E1;7,290676832E-1;1,560913444E0;2,170098782E0
8,348163495E1;2,716823220E-1;3,054326214E-2;2,914285421E0
8,358163494E1;6,780604273E-2;-4,483750761E-1;1,634980798E0
8,368163494E1;-9,330966324E-2;3,161227703E-1;-1,187674761E0
8,378163495E1;-3,008511364E-1;2,153299935E-2;-1,711949825E0
8,388163494E1;-1,085965633E0;-8,265006542E-1;-2,051590919E0
8,398163495E1;-1,191034555E0;-1,080926061E0;-1,494939923E0
8,408163494E1;2,712241709E-1;4,859432876E-1;3,628539443E-1
8,418163494E1;8,358163834E-1;1,421788812E0;1,851227164E0
8,428163495E1;4,970915914E-1;5,360342562E-2;2,886643648E0
8,438163494E1;3,077233732E-1;-3,747658134E-1;1,903608799E0
8,448163495E1;5,360342562E-2;-6,719517522E-3;-1,080315232E0
8,458163494E1;-2,322815061E-1;-3,842342496E-1;-2,303114653E0
8,468163494E1;-9,118691087E-1;-7,180721164E-1;-2,005775928E0
8,478163495E1;-6,701191664E-1;-3,704897761E-1;-1,070999503E0
8,488163494E1;9,437867999E-2;3,045163155E-1;2,428189293E-2
8,498163495E1;9,651671052E-1;1,039387226E0;2,512641430E0
8,508163494E1;6,520986557E-1;1,812742651E-1;2,965445280E0
8,518163494E1;-9,468411095E-3;-6,307183504E-1;6,155994534E-1
8,528163495E1;-1,740965992E-2;-1,156062484E-1;-7,638869882E-1
8,538163494E1;-1,892155111E-1;-3,164281845E-1;-2,249969482E0
8,548163495E1;-8,371908069E-1;-6,623306274E-1;-2,257299900E0
8,558163494E1;-7,791585922E-1;-7,654141784E-1;-1,168279767E0
8,568163494E1;5,940664560E-2;3,219259977E-1;-1,273654103E-1
8,578163495E1;9,005680680E-1;1,182787776E0;2,483930826E0
8,588163494E1;6,342308521E-1;2,903137207E-1;2,992934227E0
8,598163495E1;1,316414624E-1;-5,835290551E-1;7,982481718E-1
8,608163494E1;-6,872233748E-2;-1,658499092E-1;-7,090618610E-1
8,618163494E1;-3,185662329E-1;-1,828014255E-1;-2,194075346E0
8,628163495E1;-7,638869882E-1;-6,977608204E-1;-2,338239431E0
8,638163494E1;-7,160868049E-1;-5,769622326E-1;-1,166294456E0
8,648163495E1;4,627304152E-2;3,526219726E-1;-1,004873365E-1
8,658163494E1;8,863654733E-1;1,098946571E0;2,565634012E0
8,668163494E1;6,198754907E-1;1,753183305E-1;3,015688896E0
8,678163495E1;3,527746722E-2;-6,940956116E-1;7,495316267E-1
8,688163494E1;6,475171447E-2;-2,470949888E-1;-8,239045143E-1
8,698163495E1;-2,861903608E-1;-4,369213581E-1;-2,265088320E0
8,708163494E1;-1,380860925E0;-1,018617749E0;-1,763567924E0
8,718163494E1;-7,017314434E-1;-6,018549800E-1;-1,119716048E0
8,728163495E1;8,156577945E-1;1,413389444E0;1,593594670E0
8,738163494E1;9,801332951E-1;1,168890595E0;2,450333118E0
8,748163495E1;3,419318199E-1;-3,303253949E-1;2,262033939E0
8,758163494E1;3,008511290E-2;-5,781839490E-1;7,460191846E-1
8,768163494E1;-2,962696366E-2;4,143193662E-1;-1,700648785E0
8,778163495E1;-2,606867552E-1;-3,422372639E-1;-2,147344112E0
8,788163494E1;-1,260215044E0;-1,060156584E0;-1,731192112E0
8,798163495E1;-8,031350970E-1;-8,452847600E-1;-1,217607141E0
8,808163494E1;8,184067011E-1;1,513571382E0;1,543809175E0
8,818163494E1;9,607383013E-1;9,384417534E-1;2,499507904E0
8,828163495E1;4,045455158E-1;-4,642575979E-1;2,199114799E0
8,838163494E1;1,508837193E-1;-6,852380633E-1;5,700899959E-1
8,848163495E1;-1,466076635E-2;2,270891517E-1;-1,667814851E0
8,858163494E1;-1,687515229E-1;-3,746131063E-1;-2,331367254E0
8,868163494E1;-1,288925648E0;-9,069821835E-1;-1,690722227E0
8,878163495E1;-5,380195379E-1;-3,236058652E-1;-1,115287185E0
8,888163494E1;7,267768979E-1;1,674076200E0;1,756390333E0
8,898163495E1;7,408268452E-1;9,986119866E-1;2,695595503E0
8,908163494E1;1,947132945E-1;-3,462078869E-1;2,143526077E0
8,918163494E1;4,932736978E-2;-6,221662760E-1;4,022547603E-1
8,928163495E1;-7,269296050E-2;2,941316068E-1;-1,664913177E0
8,938163494E1;-1,777617931E-1;-3,446807265E-1;-2,335795879E0
8,948163495E1;-9,938777685E-1;-8,817839622E-1;-1,747838140E0
8,958163494E1;1,692096740E-1;4,888449013E-1;2,567161322E-1
8,968163494E1;7,709119320E-1;1,596343637E0;1,821752906E0
8,978163495E1;4,140139222E-1;1,282817032E-2;3,084869385E0
8,988163494E1;2,353358418E-1;-3,674354553E-1;2,034181356E0
8,998163495E1;-9,315694682E-3;3,313944116E-2;-1,085812926E0
9,008163494E1;-1,479821056E-1;2,736676335E-1;-1,835039139E0
9,018163494E1;-1,098793864E0;-7,170031071E-1;-2,199878454E0
9,028163495E1;-1,258229733E0;-9,928087592E-1;-1,596190929E0
9,038163494E1;2,724458873E-1;6,482807398E-1;5,351179838E-1
9,048163495E1;7,673994899E-1;1,415985584E0;2,049452782E0
9,058163494E1;2,958115041E-1;-1,977676302E-1;3,005304337E0
9,068163494E1;2,745839357E-1;-3,743076921E-1;1,708131909E0
9,078163495E1;2,180788964E-1;1,314887404E-1;-1,382235289E0
9,088163494E1;3,634648025E-2;-1,913535446E-1;-1,809077382E0
9,098163495E1;-1,087798238E0;-7,342600226E-1;-2,077705383E0
9,108163494E1;-1,107498646E0;-1,074817419E0;-1,479668379E0
9,118163494E1;4,604396820E-1;9,923505783E-1;7,312057018E-1
9,128163495E1;8,347473741E-1;1,497077942E0;2,125505686E0
9,138163494E1;3,052799106E-1;-2,550362423E-2;2,884963751E0
9,148163495E1;9,315694869E-2;-3,827070892E-1;1,719585657E0
9,158163494E1;6,123924255E-2;3,124575615E-1;-1,339932919E0
9,168163494E1;-2,336559594E-1;9,285151958E-2;-1,689042449E0
9,178163495E1;-1,195463300E0;-7,490735054E-1;-1,974316478E0
9,188163494E1;-1,203251839E0;-9,439395070E-1;-1,504255652E0
9,198163495E1;2,696970105E-1;8,593347073E-1;7,296785116E-1
9,208163494E1;7,104362845E-1;5,039638281E-1;2,687348843E0
9,218163494E1;4,172209501E-1;-1,140790880E-1;2,831665754E0
9,228163495E1;-6,414085161E-3;-8,506298661E-1;-8,750644326E-2
9,238163494E1;2,461786866E-1;3,425426781E-1;-1,417665482E0
9,248163495E1;-5,293147564E-1;-4,355469346E-1;-2,561663389E0
9,258163494E1;-1,184009552E0;-7,432702780E-1;-2,143526077E0
9,268163494E1;-7,574728876E-2;-8,307767659E-2;-7,032586336E-1
9,278163495E1;5,833762884E-1;9,677632451E-1;7,846564054E-1
9,288163494E1;7,741189599E-1;9,213374853E-1;2,733774662E0
9,298163495E1;3,127630055E-1;6,459899992E-2;2,741105080E0
9,308163494E1;-1,217148975E-1;-5,195409060E-1;2,794708498E-2
9,318163494E1;7,284568250E-2;3,090978265E-1;-1,234864116E0
9,328163495E1;-2,976440787E-1;-5,108360648E-1;-2,293493509E0
9,338163494E1;-9,998337030E-1;-7,893906236E-1;-2,121687651E0
9,348163495E1;-4,239404798E-1;-7,177666575E-2;-8,678867817E-1
9,358163494E1;2,626720667E-1;7,680103183E-1;2,846632004E-1
9,368163494E1;6,007859707E-1;8,827002645E-1;2,649475336E0
9,378163495E1;1,272126883E-1;1,067487001E-1;3,050355673E0
9,388163494E1;-9,850201756E-2;-5,934556127E-1;5,229006410E-1
9,398163495E1;1,557706390E-2;-4,932736978E-2;-7,832819819E-1
9,408163494E1;-2,573269904E-1;-3,857614100E-1;-2,087784767E0
9,418163494E1;-8,245153427E-1;-7,191411257E-1;-2,127490997E0
9,428163495E1;-4,569272101E-1;-5,384777188E-1;-1,311069489E0
9,438163494E1;1,968513280E-1;1,991420686E-1;-3,854559660E-1
9,448163495E1;8,808676600E-1;1,202793717E0;2,326022148E0
9,458163494E1;2,197587788E-1;-2,594650090E-1;2,564564943E0
9,468163494E1;6,001751125E-2;-4,262312353E-1;1,189354658E0
9,478163495E1;2,535090782E-2;4,308127165E-1;-1,683391929E0
9,488163494E1;-2,075414658E-1;-8,491026610E-2;-1,873523712E0
9,498163495E1;-1,374294043E0;-7,215845585E-1;-1,838551641E0
9,508163494E1;-1,052826285E0;-9,482156038E-1;-1,457677245E0
9,518163494E1;4,631885588E-1;1,032973170E0;1,127657294E0
9,528163495E1;8,336783648E-1;1,466687441E0;2,205528975E0
9,538163494E1;3,546072841E-1;-3,762930036E-1;2,699413538E0
9,548163495E1;1,383609772E-1;-5,076290369E-1;1,378570199E0
9,558163494E1;9,453139454E-2;1,857030392E-1;-1,264949203E0
9,568163494E1;-1,345430762E-1;-7,406741381E-2;-1,802205205E0
9,578163495E1;-9,839512110E-1;-1,050230026E0;-2,106721401E0
9,588163494E1;-1,022130251E0;-9,364564419E-1;-1,743867517E0
9,598163495E1;5,731443167E-1;9,546296597E-1;6,684392691E-1
9,608163494E1;9,279043078E-1;1,562287807E0;2,143831491E0
9,618163494E1;2,353358418E-1;-1,682933718E-1;2,853046179E0
9,628163495E1;4,382958263E-2;-5,952881575E-1;1,826945186E0
9,638163494E1;6,459899992E-2;1,849394590E-1;-1,276555657E0
9,648163495E1;-1,159116775E-1;5,161811411E-2;-1,724778056E0
9,658163494E1;-1,118036151E0;-6,721044779E-1;-2,077552795E0
9,668163494E1;-1,126588225E0;-9,421069026E-1;-1,586417079E0
9,678163495E1;3,883575797E-1;7,942775488E-1;5,845980644E-1
9,688163494E1;7,872526050E-1;1,473865151E0;2,196518660E0
9,698163495E1;4,879286289E-1;-1,237002090E-1;2,873204708E0
9,708163494E1;2,058615834E-1;-5,390886068E-1;-8,872817457E-2
9,718163494E1;1,795943826E-1;3,138320148E-1;-1,285718679E0
9,728163495E1;-4,702135324E-1;-4,187481403E-1;-2,701246023E0
9,738163494E1;-1,004415154E0;-7,545713186E-1;-1,610698938E0
9,748163495E1;-2,782491148E-1;-7,834346592E-2;-8,197811842E-1
9,758163494E1;3,297145069E-1;8,962920308E-1;8,185594082E-1
9,768163494E1;6,647741199E-1;6,748533845E-1;2,842966795E0
9,778163495E1;2,223549485E-1;-1,574505121E-1;2,752100706E0
9,788163494E1;-2,580905706E-2;-5,891795158E-1;-9,376781434E-2
9,798163495E1;9,468411654E-2;3,956879675E-1;-1,333976984E0
9,808163494E1;-4,598288238E-1;-5,004513264E-1;-2,430938244E0
9,818163495E1;-1,176831841E0;-7,742717266E-1;-2,041817188E0
9,828163495E1;-2,987131178E-1;-2,205223590E-1;-7,884743214E-1
9,838163494E1;4,205807149E-1;9,341656566E-1;8,292495608E-1
9,848163495E1;5,293147564E-1;5,836817622E-1;2,920852184E0
9,858163494E1;2,142609805E-1;-3,359758854E-1;2,812576294E0
9,868163495E1;1,466076635E-2;-6,134614348E-1;-1,675297916E-1
9,878163495E1;1,576032341E-1;1,276708394E-1;-1,519680023E0
9,888163494E1;-4,138612151E-1;-4,970915914E-1;-2,435825109E0
9,898163495E1;-1,112080216E0;-7,585419416E-1;-2,073276758E0
9,908163494E1;-1,701259762E-1;-1,553124934E-1;-6,745479703E-1
9,918163495E1;5,561928153E-1;1,072679400E0;9,379835725E-1
9,928163495E1;7,141014934E-1;5,981897712E-1;2,850602627E0
9,938163494E1;2,422080636E-1;-1,779145002E-1;2,825709820E0
9,948163495E1;-6,261368748E-3;-3,796527386E-1;-2,165517360E-1
9,958163494E1;-1,058324054E-1;-5,925392732E-2;-1,927279830E0
9,968163495E1;-4,914411008E-1;-3,431535661E-1;-2,437352419E0
9,978163495E1;-8,542950749E-1;-1,019381404E0;-1,497994304E0
9,988163494E1;-1,788308024E-1;-1,366810948E-1;-6,333145499E-1
9,998163495E1;7,299839854E-1;1,284802318E0;2,235614061E0
1,000816349E2;5,476406813E-1;7,440338731E-1;2,876717091E0
1,001816349E2;2,565634064E-2;-4,114177525E-1;1,530522823E0
1,002816349E2;-5,009094998E-2;-4,867068827E-1;-2,512183189E-1
1,003816349E2;-1,692096740E-1;-1,508837193E-1;-1,870774865E0
1,004816349E2;-4,369213581E-1;-4,622722864E-1;-2,499507904E0
1,005816349E2;-6,458373070E-1;-9,338602424E-1;-1,483180761E0
1,006816349E2;-9,162978968E-4;-2,478585690E-1;-7,719809413E-1
1,007816349E2;8,471173644E-1;1,437518597E0;2,101987362E0
1,008816349E2;6,808093190E-1;6,446155310E-1;2,852893353E0
1,009816349E2;2,109012306E-1;-4,841107130E-1;1,535257101E0
1,010816349E2;2,041817009E-1;-4,636467099E-1;-5,803219974E-2
1,011816349E2;-1,163698286E-1;-4,749477282E-2;-1,821600199E0
1,012816349E2;-4,996877611E-1;-2,495384514E-1;-2,478127480E0
1,013816349E2;-1,118799686E0;-8,155050874E-1;-1,522428870E0
1,014816349E2;-3,793473244E-1;-5,955936015E-2;-6,177374721E-1
1,015816349E2;6,291912198E-1;1,490205765E0;2,244624376E0
1,016816349E2;5,209153295E-1;6,626361012E-1;2,828000546E0
1,017816349E2;-5,115996301E-2;-3,755294085E-1;1,677741408E0
1,018816349E2;-4,291328415E-2;-4,563163519E-1;-7,483099401E-2
1,019816349E2;-1,947132945E-1;-1,469130963E-1;-1,806939363E0
1,020816349E2;-1,141401768E0;-1,054811597E0;-1,972483873E0
1,021816349E2;-1,127657294E0;-1,334587812E0;-1,561371565E0
1,022816349E2;5,096143484E-1;8,009970784E-1;7,221954465E-1
1,023816349E2;9,918924570E-1;1,212567568E0;2,063044548E0
1,024816349E2;5,809328556E-1;-8,735372871E-2;2,742632151E0
1,025816349E2;3,057380617E-1;-4,923573732E-1;1,545641780E0
1,026816349E2;1,240056455E-1;3,055853248E-1;-1,366811037E0
1,027816349E2;-8,903361112E-2;5,925392732E-2;-1,690722227E0
1,028816349E2;-1,211651206E0;-4,615086913E-1;-2,116037130E0
1,029816349E2;-1,241430879E0;-9,358455539E-1;-1,538311362E0
1,030816349E2;2,341141105E-1;8,907942176E-1;5,444336534E-1
1,031816349E2;6,385068893E-1;1,136972904E0;2,036624670E0
1,032816349E2;3,443752825E-1;-1,007927656E-1;2,976440907E0
1,033816349E2;9,010262042E-2;-4,758640230E-1;1,908953905E0
1,034816349E2;-3,772092983E-2;1,988366395E-1;-1,070694089E0
1,035816349E2;-1,249219403E-1;7,101308554E-2;-1,790598750E0
1,036816349E2;-8,168795705E-1;-5,337435007E-1;-2,271044254E0
1,037816349E2;-1,073595643E0;-1,201113820E0;-1,779603124E0
1,038816349E2;4,288274050E-1;6,673702598E-1;3,510948122E-1
1,039816349E2;8,509352803E-1;1,461189628E0;1,820073009E0
1,040816349E2;5,534439087E-1;1,287398487E-1;2,881298542E0
1,041816349E2;3,955352604E-1;-2,293798923E-1;1,963473558E0
1,042816349E2;3,323107064E-1;9,468411095E-3;-1,039539933E0
1,043816349E2;2,764165215E-2;3,019201458E-1;-1,586417079E0
1,044816349E2;-9,789115787E-1;-4,809036553E-1;-2,179567099E0
1,045816349E2;-7,999280095E-1;-4,297437072E-1;-1,063210964E0
1,046816349E2;-2,687807009E-2;7,458664775E-1;3,298672289E-2
1,047816349E2;5,558874011E-1;9,198103547E-1;2,464841366E0
1,048816349E2;3,326161206E-1;5,482515693E-1;2,935513020E0
1,049816349E2;-1,017090604E-1;-6,539312601E-1;8,817839622E-1
1,050816349E2;1,020144969E-1;-1,834122837E-1;-6,841690540E-1
1,051816349E2;-2,446515262E-1;-2,739730477E-1;-2,092366219E0
1,052816349E2;-8,555167913E-1;-4,418082833E-1;-2,245082378E0
1,053816349E2;-8,875871897E-1;-6,608034968E-1;-1,185231328E0
1,054816349E2;-8,918632567E-2;3,781255782E-1;-1,408044398E-1
1,055816349E2;5,667302608E-1;1,085507512E0;2,448042393E0
1,056816349E2;3,707951903E-1;5,375614166E-1;2,972775698E0
1,057816349E2;1,908953860E-2;-4,046982229E-1;1,208596945E0
1,058816349E2;-1,962404549E-1;-2,855795026E-1;-4,130976200E-1
1,059816349E2;-3,478877544E-1;-1,980730593E-1;-1,736689925E0
1,060816349E2;-6,562219858E-1;-2,605340183E-1;-2,365881205E0
1,061816349E2;-1,070388675E0;-9,460775256E-1;-1,505019307E0
1,062816349E2;-2,643519342E-1;-1,957823038E-1;-7,203628421E-1
1,063816349E2;7,925976515E-1;1,362076759E0;2,053576231E0
1,064816349E2;6,293439269E-1;6,278167367E-1;2,689181566E0
1,065816349E2;1,823432744E-1;-4,494441152E-1;1,863139033E0
1,066816349E2;6,108652335E-3;-5,213735104E-1;4,214970022E-2
1,067816349E2;-2,446515262E-1;1,970040351E-1;-1,603215814E0
1,068816349E2;-3,404046595E-1;-3,329215646E-1;-2,291661024E0
1,069816349E2;-1,299615860E0;-9,433286786E-1;-1,732719302E0
1,070816349E2;4,185954034E-1;7,124215961E-1;1,258382350E-1
1,071816349E2;9,992228150E-1;1,331380844E0;1,859931946E0
1,072816349E2;4,570799172E-1;7,605272532E-2;2,877938986E0
1,073816349E2;1,739438772E-1;-6,406449080E-1;2,126269102E0
1,074816349E2;6,795875728E-2;-9,162978269E-3;-8,860600591E-1
1,075816349E2;-1,907426715E-1;3,962988257E-1;-1,604437590E0
1,076816349E2;-7,518224120E-1;-5,016731024E-1;-2,210568666E0
1,077816349E2;-1,292743564E0;-9,868528247E-1;-1,760055542E0
1,078816349E2;7,635815442E-2;4,016439021E-1;-4,092797264E-2
1,079816349E2;6,615670323E-1;1,496467113E0;1,635286212E0
1,080816349E2;3,353650272E-1;2,333505303E-1;2,969110489E0
1,081816349E2;1,172861308E-1;-3,914119005E-1;2,236530304E0
1,082816349E2;6,582073122E-2;-3,596469164E-1;-6,078109145E-1
1,083816349E2;1,620320082E-1;2,507601976E-1;-1,554804802E0
1,084816349E2;-8,112290502E-1;-6,003278494E-1;-2,284177780E0
1,085816349E2;-1,182940602E0;-8,060367107E-1;-1,898569226E0
1,086816349E2;1,169806942E-1;7,360926270E-2;-3,788891733E-1
1,087816349E2;7,768678665E-1;1,430188298E0;1,285565853E0
1,088816349E2;6,097962260E-1;4,941899776E-1;2,970332146E0
1,089816349E2;2,776382565E-1;-2,828305960E-1;2,521804333E0
1,090816349E2;1,548543423E-1;-3,749185503E-1;-4,960225821E-1
1,091816349E2;-4,031710699E-2;3,622430861E-1;-1,475239515E0
1,092816349E2;-7,541131377E-1;-4,598288238E-1;-2,428036690E0
1,093816349E2;-1,221577764E0;-8,016079068E-1;-2,021658421E0
1,094816349E2;1,455386430E-1;-7,574728876E-2;-6,111706495E-1
1,095816349E2;1,049466491E0;1,087645531E0;2,157270670E0
1,096816349E2;8,871290684E-1;6,023131609E-1;2,805245876E0
1,097816349E2;1,682933718E-1;-5,844452977E-1;1,531897306E0
1,098816349E2;1,320996135E-1;-6,560692787E-1;-2,490803003E-1
1,099816349E2;-1,105666086E-1;-2,733621933E-2;-1,705993891E0
1,100816349E2;-3,798054755E-1;-2,596177161E-1;-2,484541655E0
1,101816349E2;-1,084896684E0;-1,045037746E0;-1,640020490E0
1,102816349E2;-3,759875596E-1;-3,393356502E-1;-7,122688890E-1
1,103816349E2;8,330674767E-1;1,517389297E0;2,035555601E0
1,104816349E2;6,919575930E-1;9,546296597E-1;2,792570353E0
1,105816349E2;1,652390510E-1;-3,697261810E-1;1,820225716E0
1,106816349E2;-2,225076705E-1;-7,721336484E-1;1,342376322E-1
1,107816349E2;-9,651670605E-2;1,690569520E-1;-1,741576791E0
1,108816349E2;-2,281581759E-1;-5,783366561E-1;-2,361604929E0
1,109816349E2;-1,212414742E0;-9,995282292E-1;-1,658193707E0
1,110816349E2;-3,468187451E-1;-2,063197345E-1;-9,841039181E-1
1,111816349E2;8,862127662E-1;1,693776608E0;1,917658687E0
1,112816349E2;6,759223938E-1;8,964447379E-1;2,736065388E0
1,113816349E2;4,489859566E-2;-2,762638032E-1;1,882534027E0
1,114816349E2;-7,788532227E-2;-6,704245806E-1;2,797762752E-1
1,115816349E2;-1,765400618E-1;2,193006277E-1;-1,740660548E0
1,116816349E2;-3,136793077E-1;-2,400700450E-1;-2,575865984E0
1,117816349E2;-1,316414595E0;-1,145066857E0;-1,669647455E0
1,118816349E2;-3,966042697E-1;-3,136793077E-1;-8,478809595E-1
1,119816349E2;8,927795291E-1;1,561676979E0;2,052354574E0
1,120816349E2;2,979495227E-1;-8,414668590E-2;2,927877188E0
1,121816349E2;1,881465018E-1;-4,876231849E-1;1,818851233E0
1,122816349E2;9,560041130E-2;1,924225539E-1;-1,305877209E0
1,123816349E2;-2,131919712E-1;5,192354694E-2;-1,737148046E0
1,124816349E2;-1,092685223E0;-7,912232280E-1;-2,109928608E0
1,125816349E2;-1,118341565E0;-9,699012637E-1;-1,619251013E0
1,126816349E2;4,312708676E-1;7,849618196E-1;7,000515461E-1
1,127816349E2;1,006705880E0;1,477072120E0;2,225534916E0
1,128816349E2;3,092505336E-1;-2,525927722E-1;2,892446995E0
1,129816349E2;2,079996169E-1;-4,463897645E-1;1,460273385E0
1,130816349E2;1,453859210E-1;5,711590052E-1;-1,607797384E0
1,131816349E2;-3,543018401E-1;1,970040426E-2;-1,612836957E0
1,132816349E2;-9,359982610E-1;-6,869179606E-1;-2,323120594E0
1,133816349E2;-1,068403363E0;-9,773843884E-1;-1,531286478E0
1,134816349E2;5,280929804E-1;1,266629100E0;1,142623425E0
1,135816349E2;7,710646391E-1;1,198670268E0;2,326785803E0
1,136816349E2;2,703078687E-1;-3,037527502E-1;2,659707308E0
1,137816349E2;1,493565589E-1;-4,560109079E-1;1,298394084E0
1,138816349E2;2,058615834E-1;1,797471046E-1;-1,624443412E0
1,139816349E2;-8,597928286E-2;-2,927571833E-1;-2,009441137E0
1,140816349E2;-1,275792122E0;-7,993171811E-1;-1,995696783E0
1,141816349E2;-9,474520087E-1;-1,069625020E0;-1,320843339E0
1,142816349E2;7,336491346E-1;1,366047382E0;1,298546791E0
1,143816349E2;8,918632865E-1;1,036638379E0;2,477516651E0
1,144816349E2;3,795000315E-1;-3,173444867E-1;2,485610723E0
1,145816349E2;1,386664063E-1;-4,725042582E-1;-6,798930168E-1
1,146816349E2;1,163698286E-1;2,579378486E-1;-1,615738630E0
1,147816349E2;-8,071057200E-1;-4,011857510E-1;-2,453082085E0
1,148816349E2;-1,243416190E0;-8,385652900E-1;-1,835955501E0
1,149816349E2;7,666359097E-2;2,617557645E-1;-1,356120855E-1
1,150816349E2;7,073819637E-1;1,360702276E0;1,540754914E0
1,151816349E2;5,461135507E-1;3,523165286E-1;3,039970875E0
1,152816349E2;2,419026345E-1;-3,245221674E-1;2,409863472E0
1,153816349E2;-2,089159191E-1;-4,550946057E-1;-6,336199641E-1
1,154816349E2;-2,600758672E-1;5,522221923E-1;-1,672243595E0
1,155816349E2;-5,568036437E-1;-2,376265824E-1;-2,457968950E0
1,156816349E2;-1,100015640E0;-1,150411963E0;-2,011579275E0
1,157816349E2;9,712757170E-2;5,427537560E-1;-1,330159009E-1
1,158816349E2;5,934556127E-1;1,597107172E0;1,621236324E0
1,159816349E2;2,817615867E-1;1,879937798E-1;3,091283560E0
1,160816349E2;1,617265791E-1;-3,761402667E-1;2,393980980E0
1,161816349E2;4,581489414E-2;-6,734789163E-2;-1,028849840E0
1,162816349E2;1,076650023E-1;3,967569768E-1;-1,737758875E0
1,163816349E2;-1,026253581E0;-4,253149331E-1;-2,519971848E0
1,164816349E2;-1,412625909E0;-7,492262125E-1;-1,625206947E0
1,165816349E2;3,020728528E-1;7,021896243E-1;3,266601861E-1
1,166816349E2;9,124799371E-1;1,704466701E0;1,833664775E0
1,167816349E2;3,468187451E-1;-1,542434692E-1;3,068376064E0
1,168816349E2;2,868012190E-1;-2,958115041E-1;2,054339886E0
1,169816349E2;1,021672115E-1;1,069014147E-2;-1,141554475E0
1,170816349E2;-2,968805134E-1;-2,218967974E-1;-2,649475336E0
1,171816349E2;-1,056185961E0;-6,974554062E-1;-2,282039881E0
1,172816349E2;-3,226895630E-1;-2,302961946E-1;-7,082982659E-1
1,173816349E2;2,669481039E-1;4,796819389E-1;7,545713186E-1
1,174816349E2;7,298312783E-1;8,326093554E-1;2,871830225E0
1,175816349E2;3,026837409E-1;-2,127338201E-1;2,889087200E0
1,176816349E2;-3,298672289E-2;-6,956228018E-1;-3,894266114E-2
1,177816349E2;9,804387391E-2;6,291911751E-2;-1,428202987E0
1,178816349E2;-4,637994468E-1;-4,007275999E-1;-2,716059685E0
1,179816349E2;-1,198975801E0;-8,428413272E-1;-2,069306135E0
1,180816349E2;-2,275473028E-1;-1,185078546E-1;-5,752823353E-1
1,181816349E2;4,001167417E-1;9,068294764E-1;1,035874724E0
1,182816349E2;6,281222105E-1;5,795583725E-1;3,041345358E0
1,183816349E2;2,910772860E-1;-3,333797157E-1;2,696969986E0
1,184816349E2;-2,504547499E-2;-5,531384945E-1;-3,795000315E-1
1,185816349E2;-6,444628537E-2;3,184134960E-1;-1,708131909E0
1,186816349E2;-6,893614531E-1;-7,530441284E-1;-2,687654257E0
1,187816349E2;-1,296408772E0;-9,222537875E-1;-1,996460319E0
1,188816349E2;1,314887404E-1;1,779145002E-1;-2,234239578E-1
1,189816349E2;7,823656797E-1;1,279304504E0;1,469130874E0
1,190816349E2;4,922046661E-1;3,378084898E-1;3,119536161E0
1,191816349E2;2,973386645E-1;-1,708895564E-1;2,385886908E0
1,192816349E2;-7,925976813E-2;-3,089450896E-1;-7,718282342E-1
1,193816349E2;-2,814561725E-1;-2,472477108E-1;-2,410474300E0
1,194816349E2;-9,375254512E-1;-4,900666475E-1;-2,407878160E0
1,195816349E2;-3,814853430E-1;-4,888449013E-1;-9,981538057E-1
1,196816349E2;3,365867436E-1;6,018549800E-1;1,988366395E-1
1,197816349E2;8,940013051E-1;8,229882121E-1;2,850450039E0
1,198816349E2;3,501785100E-1;-7,910704613E-2;3,063642025E0
1,199816349E2;7,330382615E-2;-3,666718602E-1;6,001751125E-2
1,200816349E2;2,017382532E-1;2,127338201E-1;-1,392467380E0
1,201816349E2;-4,479169548E-1;-5,868887901E-1;-2,698802710E0
1,202816349E2;-1,104902506E0;-7,947356701E-1;-2,169945955E0
1,203816349E2;-2,069306076E-1;-3,648392558E-1;-7,032586336E-1
1,204816349E2;7,385360599E-1;1,348332286E0;1,069777727E0
1,205816349E2;5,100724697E-1;5,600107312E-1;3,152370214E0
1,206816349E2;1,539380401E-1;-1,713477075E-1;2,708271027E0
1,207816349E2;-1,443169117E-1;-4,500549734E-1;-5,630650520E-1
1,208816349E2;-9,789115191E-2;1,721112877E-1;-1,754863143E0
1,209816349E2;-7,495316267E-1;-4,743368626E-1;-2,739272594E0
1,210816349E2;-1,285260439E0;-1,148273945E0;-1,996002197E0
1,211816349E2;1,621847153E-1;4,541783035E-1;-2,855795063E-2
1,212816349E2;7,347181439E-1;1,421941519E0;1,678046823E0
1,213816349E2;4,379903674E-1;3,207042441E-2;3,100446463E0
1,214816349E2;2,736676335E-1;-5,323690772E-1;2,326327562E0
1,215816349E2;-9,468411095E-3;-1,360702366E-1;-9,834930301E-1
1,216816349E2;-1,608102769E-1;1,363756657E-1;-1,700037956E0
1,217816349E2;-9,491318464E-1;-4,022547603E-1;-2,320066214E0
1,218816349E2;-3,058907688E-1;-3,908010423E-1;-1,001666307E0
1,219816349E2;4,166100919E-1;6,209445000E-1;3,996585906E-1
1,220816349E2;8,197811842E-1;9,586002827E-1;2,849380970E0
1,221816349E2;2,735149264E-1;-1,797471046E-1;2,992017984E0
1,222816349E2;-1,036943719E-1;-5,103778839E-1;1,372919679E-1
1,223816349E2;-4,169155285E-2;1,444696337E-1;-1,319010735E0
1,224816349E2;-4,958698750E-1;-4,120286107E-1;-2,607630968E0
1,225816349E2;-1,108415008E0;-7,809911966E-1;-2,188882828E0
1,226816349E2;-1,947132945E-1;-1,886046380E-1;-7,441865802E-1
1,227816349E2;4,589125216E-1;9,072875977E-1;9,320276380E-1
1,228816349E2;6,087272167E-1;4,457789063E-1;3,103653669E0
1,229816349E2;2,893974185E-1;-2,373211533E-1;2,745839357E0
1,230816349E2;3,207042580E-3;-5,749769211E-1;-3,061962128E-1
1,231816349E2;8,032877743E-2;2,606867552E-1;-1,452332139E0
1,232816349E2;-7,261660695E-1;-4,398229718E-1;-2,732858419E0
1,233816349E2;-1,172861218E0;-7,666358948E-1;-2,123672962E0
1,234816349E2;3,924809024E-2;2,260201424E-1;-2,545780838E-1
1,235816349E2;6,495024562E-1;1,416901946E0;1,477377653E0
1,236816349E2;3,165809214E-1;8,781187981E-2;3,137556553E0
1,237816349E2;2,092213482E-1;-4,711298347E-1;2,522109985E0
1,238816349E2;-2,275473066E-2;-7,177666575E-2;-7,898487449E-1
1,239816349E2;-2,234239578E-1;2,965750694E-1;-1,761735320E0
1,240816349E2;-7,440338731E-1;-5,349652171E-1;-2,574033499E0
1,241816349E2;-9,540187716E-1;-9,474520087E-1;-1,923461914E0
1,242816349E2;4,072943926E-1;8,387179971E-1;6,072000265E-1
1,243816349E2;5,201517344E-1;6,688974500E-1;3,105638981E0
1,244816349E2;2,341141105E-1;-3,669773042E-1;2,893210411E0
1,245816349E2;7,971791178E-2;-3,040581644E-1;-1,461495161E-1
1,246816349E2;7,024950348E-3;3,226895630E-1;-1,280068159E0
1,247816349E2;-1,650863290E-1;-1,692096740E-1;-2,207972527E0
1,248816349E2;-6,429356933E-1;-4,408919811E-1;-1,732261062E0
1,249816349E2;-7,492262125E-1;-8,843801618E-1;-1,161865711E0
1,250816349E2;-4,153883830E-2;1,609629989E-1;-4,045455158E-1
1,251816349E2;6,919575930E-1;1,132238746E0;1,869247675E0
1,252816349E2;6,120869517E-1;6,881396770E-1;2,581211090E0
1,253816349E2;2,115120888E-1;-4,544837475E-1;1,852143407E0
1,254816349E2;-3,375030309E-2;-8,403978348E-1;4,888449013E-1
1,255816349E2;1,324050426E-1;2,270891517E-1;-1,369254470E0
1,256816349E2;-1,954768747E-1;-3,022255898E-1;-1,745547414E0
1,257816349E2;-1,253953576E0;-4,948008358E-1;-1,759750009E0
1,258816349E2;-5,661193728E-1;-5,122104883E-1;-1,007774949E0
1,259816349E2;3,101668358E-1;6,852380633E-1;2,753475010E-1
1,260816349E2;5,477933884E-1;1,278540969E0;1,497841597E0
1,261816349E2;4,340197444E-1;2,808452845E-1;2,819753885E0
1,262816349E2;2,655736506E-1;-4,185954034E-1;2,292882681E0
1,263816349E2;1,153008118E-1;-4,450153410E-1;-4,120286107E-1
1,264816349E2;1,017090604E-1;1,962404549E-1;-1,206000686E0
1,265816349E2;-3,152064681E-1;-1,348485053E-1;-2,125505686E0
1,266816349E2;-9,359982610E-1;-6,713408828E-1;-1,877036214E0
1,267816349E2;-6,409503818E-1;-7,301366925E-1;-1,141554475E0
1,268816349E2;1,765400618E-1;3,349068761E-1;-2,295326144E-1
1,269816349E2;7,588473558E-1;1,026711702E0;2,078469038E0
1,270816349E2;5,887213945E-1;5,598580241E-1;2,678185940E0
1,271816349E2;1,852448881E-1;-4,524984360E-1;1,582751870E0
1,272816349E2;1,117883399E-1;9,147707373E-2;-8,562803864E-1
1,273816349E2;1,618792862E-2;2,225076705E-1;-1,490511179E0
1,274816349E2;-5,329799056E-1;-4,422664344E-1;-2,102292776E0
1,275816349E2;-9,886853695E-1;-4,696026444E-1;-1,743409395E0
1,276816349E2;-1,890627891E-1;-2,916881628E-2;-5,958990455E-1
1,277816349E2;3,443752825E-1;1,021366715E0;7,777841687E-1
1,278816349E2;5,135849714E-1;8,417723179E-1;2,575560570E0
1,279816349E2;1,476766765E-1;9,117163718E-2;2,799748182E0
1,280816349E2;1,156062484E-1;-5,771149397E-1;5,781839490E-1
1,281816349E2;8,277224004E-2;-4,373795092E-1;-7,360926270E-1
1,282816349E2;-2,554943860E-1;-1,368338168E-1;-1,799761772E0
1,283816349E2;-5,978843570E-1;-5,216789246E-1;-2,137264729E0
1,284816349E2;-1,005789638E0;-1,048397422E0;-1,598023534E0
1,285816349E2;-2,156354338E-1;-1,310305893E-1;-8,342891932E-1
1,286816349E2;6,800457239E-1;1,189201951E0;1,728595972E0
1,287816349E2;6,849326491E-1;8,710938692E-1;2,350914955E0
1,288816349E2;2,712241709E-1;-2,922990322E-1;2,325411320E0
1,289816349E2;1,663080603E-1;-3,880521357E-1;9,627236128E-1
1,290816349E2;2,041817009E-1;2,947424725E-2;-1,294423461E0
1,291816349E2;-2,962696366E-2;7,880161703E-2;-1,838551641E0
1,292816349E2;-7,426594496E-1;-7,057020664E-1;-1,861001015E0
1,293816349E2;-1,130864263E0;-7,585419416E-1;-1,575268745E0
1,294816349E2;2,241875380E-1;5,303837657E-1;-2,596177394E-3
1,295816349E2;5,821545720E-1;1,536936998E0;1,417818189E0
1,296816349E2;3,846924007E-1;5,196936131E-1;2,892294168E0
1,297816349E2;9,636399150E-2;-3,268128932E-1;1,209818602E0
1,298816349E2;-1,484402567E-1;-5,792529583E-1;-2,936734557E-1
1,299816349E2;3,833179548E-2;5,726861581E-2;-1,559844375E0
1,300816349E2;-2,617557645E-1;-4,263839424E-1;-2,101071119E0
1,301816349E2;-1,120632291E0;-8,678867817E-1;-1,739591479E0
1,302816349E2;-6,155994534E-1;-7,281513810E-1;-1,281137109E0
1,303816349E2;5,600107312E-1;1,044274092E0;1,011745572E0
1,304816349E2;6,884451509E-1;1,158200502E0;2,024407387E0
1,305816349E2;1,849394590E-1;-5,085453019E-2;2,639548779E0
1,306816349E2;1,313360333E-1;-3,410155177E-1;1,708742857E0
1,307816349E2;1,643227488E-1;-6,811147183E-2;-7,976372838E-1
1,308816349E2;4,657847434E-2;2,309070677E-1;-1,480890036E0
1,309816349E2;-5,897904038E-1;-4,834998548E-1;-2,029905319E0
1,310816349E2;-1,069319606E0;-4,523457289E-1;-1,747685432E0
1,311816349E2;-1,884519309E-1;-2,076941878E-1;-7,058547735E-1
1,312816349E2;3,753767014E-1;9,899071455E-1;5,832235813E-1
1,313816349E2;4,502076805E-1;8,341364861E-1;2,539519548E0
1,314816349E2;2,890919745E-1;2,191479057E-1;2,893668652E0
1,315816349E2;-6,108652451E-4;-8,663596511E-1;6,783658266E-1
1,316816349E2;6,047565863E-2;-3,178026378E-1;-7,113525867E-1
1,317816349E2;-6,261368841E-2;-1,463022232E-1;-1,789987922E0
1,318816349E2;-4,764748812E-1;-3,022255898E-1;-2,114968300E0
1,319816349E2;-1,113912821E0;-8,773552179E-1;-1,505324721E0
1,320816349E2;-3,839288056E-1;-3,142901659E-1;-8,823948503E-1
1,321816349E2;5,435173512E-1;1,198212147E0;1,634217262E0
1,322816349E2;3,558290005E-1;2,441933751E-1;2,875648260E0
1,323816349E2;6,719517708E-2;-3,860668242E-1;2,349540472E0
1,324816349E2;-3,665191308E-2;-6,356052756E-1;-3,072652221E-1
1,325816349E2;3,023782931E-2;6,352998316E-2;-1,294728875E0
1,326816349E2;-2,483167201E-1;-3,208569586E-1;-2,024865627E0
1,327816349E2;-8,182539940E-1;-7,226535678E-1;-1,996307611E0
1,328816349E2;-4,205807149E-1;-3,952298164E-1;-1,075122833E0
1,329816349E2;2,982549667E-1;5,899431109E-1;-3,420845419E-2
1,330816349E2;6,130032539E-1;1,113301873E0;2,293035507E0
1,331816349E2;4,060726762E-1;4,691445231E-1;2,769052267E0
1,332816349E2;2,037235647E-1;-5,094616413E-1;1,195157886E0
1,333816349E2;1,116356254E-1;-7,348709106E-1;-1,947132945E-1
1,334816349E2;-3,833179548E-2;7,696902007E-2;-1,564425945E0
1,335816349E2;-1,284344196E-1;-2,790127099E-1;-2,223091364E0
1,336816349E2;-1,161102057E0;-9,149234295E-1;-1,714240551E0
1,337816349E2;-6,110179424E-1;-4,277583957E-1;-1,156367898E0
1,338816349E2;4,608978331E-1;1,213483810E0;1,342834473E0
1,339816349E2;5,502368808E-1;1,030529618E0;2,196213245E0
1,340816349E2;1,221730486E-1;-2,849686444E-1;2,565939426E0
1,341816349E2;1,514945775E-1;-4,763221741E-1;1,408807993E0
1,342816349E2;1,872301996E-1;2,611448988E-2;-1,231504321E0
1,343816349E2;-3,268129006E-2;7,269296050E-2;-1,563509583E0
1,344816349E2;-7,128797174E-1;-6,113234162E-1;-1,949270964E0
1,345816349E2;-1,120632291E0;-7,098253965E-1;-1,727526903E0
1,346816349E2;1,623374373E-1;4,608978331E-1;-1,960877478E-1
1,347816349E2;7,860308290E-1;1,075275540E0;2,107637882E0
1,348816349E2;5,128213763E-1;4,915938079E-1;2,771648407E0
1,349816349E2;2,724458873E-1;-4,088215530E-1;1,417970896E0
1,350816349E2;8,597928286E-2;-6,433938146E-1;-1,927279830E-1
1,351816349E2;-1,119410545E-1;2,591595948E-1;-1,613447785E0
1,352816349E2;-2,796235681E-1;-1,817324162E-1;-2,286468506E0
1,353816349E2;-1,155146122E0;-6,279694438E-1;-1,712866187E0
1,354816349E2;-5,256495476E-1;-6,243042946E-1;-1,085354805E0
1,355816349E2;6,339253783E-1;1,273501277E0;1,215621829E0
1,356816349E2;6,969972253E-1;1,098793864E0;2,119244337E0
1,357816349E2;4,657847434E-2;-1,721112877E-1;2,609769106E0
1,358816349E2;3,252857551E-2;-3,300199509E-1;1,508073568E0
1,359816349E2;4,214970022E-2;-1,786780916E-2;-1,178664446E0
1,360816349E2;-3,008511290E-2;1,927279830E-1;-1,629788518E0
1,361816349E2;-7,964155674E-1;-7,602217793E-1;-1,918422341E0
1,362816349E2;-1,113912821E0;-7,108944058E-1;-1,828472376E0
1,363816349E2;2,249511331E-1;4,647157490E-1;-1,392772794E-1
1,364816349E2;5,685628057E-1;1,154840708E0;1,306488037E0
1,365816349E2;4,697553813E-1;5,687155724E-1;2,742632151E0
1,366816349E2;1,858557463E-1;-2,009746730E-1;2,543184757E0
1,367816349E2;4,566217586E-2;-4,732678533E-1;-1,088867337E-1
1,368816349E2;2,438879460E-1;1,608102769E-1;-1,268461704E0
1,369816349E2;-3,043636084E-1;-4,245513380E-1;-2,159713984E0
1,370816349E2;-9,127854109E-1;-6,479753256E-1;-1,830763102E0
1,371816349E2;-5,763513446E-1;-5,893322229E-1;-1,167516232E0
1,372816349E2;6,246097088E-1;1,360549569E0;1,355051875E0
1,373816349E2;6,024658680E-1;1,092837930E0;2,231032610E0
1,374816349E2;5,650503561E-2;-1,204931661E-1;2,629774809E0
1,375816349E2;6,414085161E-3;-3,793473244E-1;1,204626322E0
1,376816349E2;-1,583668143E-1;1,394299865E-1;-1,072984815E0
1,377816349E2;-4,137084782E-1;2,446515262E-1;-1,621847272E0
1,378816349E2;-8,208501935E-1;-3,930917978E-1;-2,496148109E0
1,379816349E2;-8,564330935E-1;-1,725388885E0;-1,804190516E0
1,380816349E2;3,917173445E-1;4,870123267E-1;6,565274000E-1
1,381816349E2;6,102544069E-1;7,742717266E-1;1,853823304E0
1,382816349E2;5,682573915E-1;-4,612032697E-2;2,576629639E0
1,383816349E2;5,323690772E-1;-5,404630303E-1;1,705688477E0
1,384816349E2;-3,237585723E-2;-6,070473194E-1;-3,263547719E-1
1,385816349E2;6,719517708E-2;2,725986242E-1;-1,305877209E0
1,386816349E2;-5,203045011E-1;-1,104138941E-1;-2,452318430E0
1,387816349E2;-1,184925914E0;-9,986119866E-1;-1,904677868E0
1,388816349E2;-2,177734673E-1;-4,868595898E-1;-3,533855379E-1
1,389816349E2;4,298964143E-1;9,243918061E-1;9,703594446E-1
1,390816349E2;5,282457471E-1;5,972734690E-1;2,702009678E0
1,391816349E2;9,468411654E-2;-2,557998300E-1;2,692083120E0
1,392816349E2;-1,450804994E-2;-8,384125233E-1;7,483099401E-2
1,393816349E2;2,168571651E-1;-1,137736514E-1;-1,029155254E0
1,394816349E2;-4,031710699E-2;-6,169738993E-2;-2,250427485E0
1,395816349E2;-1,135751247E0;-8,611672521E-1;-1,848936439E0
1,396816349E2;-5,146539807E-1;-3,651446998E-1;-1,340085626E0
1,397816349E2;7,069237828E-1;1,172250390E0;1,419498086E0
1,398816349E2;7,127270103E-1;9,280570149E-1;2,386650562E0
1,399816349E2;1,621847153E-1;-2,197587788E-1;2,568688393E0
1,400816349E2;2,484694421E-1;-4,520402849E-1;1,185078621E0
1,401816349E2;7,299839705E-2;2,970332205E-1;-1,296408772E0
1,402816349E2;-2,677116990E-1;1,375973970E-1;-1,705535769E0
1,403816349E2;-8,875871897E-1;-8,828529716E-1;-2,085035801E0
1,404816349E2;-1,083216786E0;-9,802860022E-1;-1,644143820E0
1,405816349E2;3,894265890E-1;5,763513446E-1;2,548835278E-1
1,406816349E2;8,465065360E-1;1,362993121E0;1,784795523E0
1,407816349E2;4,254676402E-1;2,794708610E-1;3,019812346E0
1,408816349E2;2,611449063E-1;-3,168863356E-1;2,085494041E0
1,409816349E2;5,787948146E-2;1,511891466E-2;-5,456553698E-1
1,410816349E2;-1,163698286E-1;3,628539443E-1;-1,351386666E0
1,411816349E2;-6,513350606E-1;-1,890627891E-1;-2,224465847E0
1,412816349E2;-1,139263630E0;-5,685628057E-1;-1,880243182E0
1,413816349E2;-2,629774809E-1;-2,367102802E-1;-6,780604124E-1
1,414816349E2;3,630066812E-1;9,802860022E-1;6,948592067E-1
1,415816349E2;5,410739183E-1;7,189884186E-1;2,655889273E0
1,416816349E2;2,435825169E-1;-9,728029370E-2;2,936734676E0
1,417816349E2;-3,527746722E-2;-7,469354868E-1;3,584251702E-1
1,418816349E2;4,810563847E-2;-1,024726480E-1;-7,883216143E-1
1,419816349E2;-1,884519309E-1;-1,756237596E-1;-2,037846565E0
1,420816349E2;-1,007316828E0;-6,520986557E-1;-1,798387289E0
1,421816349E2;-6,896668673E-1;-8,900306821E-1;-1,456302762E0
1,422816349E2;5,430592299E-1;1,320690632E0;1,033125877E0
1,423816349E2;7,099781036E-1;1,482264519E0;1,965000749E0
1,424816349E2;3,115412891E-1;-2,550362349E-1;2,938872576E0
1,425816349E2;2,371684313E-1;-7,680103183E-1;1,631315589E0
1,426816349E2;-7,147123665E-2;3,660610020E-1;-1,085049391E0
1,427816349E2;-2,170098722E-1;3,176499307E-1;-1,501354098E0
1,428816349E2;-8,333728909E-1;-5,203045011E-1;-2,155896187E0
1,429816349E2;-1,045037746E0;-5,393940210E-1;-1,790140629E0
1,430816349E2;2,448042482E-1;3,194825351E-1;-2,041817009E-1
1,431816349E2;7,753407359E-1;1,234405994E0;1,221577764E0
1,432816349E2;4,954117239E-1;5,180137157E-1;2,865263462E0
1,433816349E2;2,193006277E-1;-1,548543423E-1;2,595413685E0
1,434816349E2;-5,757404864E-2;-4,451680481E-1;-1,999056488E-1
1,435816349E2;3,909537569E-2;4,767803252E-1;-1,425301313E0
1,436816349E2;-3,740022480E-1;-5,054910183E-1;-2,203849077E0
1,437816349E2;-1,156367898E0;-8,741481900E-1;-2,102139950E0
1,438816349E2;-5,766568184E-1;-6,342308521E-1;-8,553640842E-1
1,439816349E2;2,961169183E-1;6,116288304E-1;1,812742651E-1
1,440816349E2;8,254316449E-1;9,480628371E-1;2,397493362E0
1,441816349E2;4,845688641E-1;1,308778822E-1;2,868928671E0
1,442816349E2;1,569923609E-1;-5,881105065E-1;8,747590184E-1
1,443816349E2;8,032877743E-2;-3,512475193E-1;-5,300782919E-1
1,444816349E2;-1,670716405E-1;-1,255328059E-1;-1,748601794E0
1,445816349E2;-1,019075990E0;-7,141014934E-1;-1,894445896E0
1,446816349E2;-8,544477820E-1;-1,008996725E0;-1,504561067E0
1,447816349E2;2,822197378E-1;7,134906054E-1;4,935791194E-1
1,448816349E2;5,215262175E-1;1,145219564E0;1,824196339E0
1,449816349E2;3,063489199E-1;-9,224065393E-2;2,906191349E0
1,450816349E2;2,814561725E-1;-4,541783035E-1;2,112830162E0
1,451816349E2;1,988366395E-1;-2,055561543E-1;-6,960809231E-1
1,452816349E2;1,175915599E-1;2,725986242E-1;-1,493260145E0
1,453816349E2;-4,547891617E-1;-3,077233732E-1;-2,192853451E0
1,454816349E2;-1,036485553E0;-6,404922009E-1;-1,838093519E0
1,455816349E2;-1,386664063E-1;-6,047565863E-2;-7,241807580E-1
1,456816349E2;4,182899892E-1;9,482156038E-1;6,366742849E-1
1,457816349E2;4,651738703E-1;7,519751191E-1;2,514932156E0
1,458816349E2;2,408336252E-1;2,753475010E-1;2,944217682E0
1,459816349E2;6,948592514E-2;-7,794640660E-1;5,122104883E-1
1,460816349E2;-5,528330430E-2;-7,391469181E-2;-9,060658813E-1
1,461816349E2;-2,393064648E-1;-1,116356254E-1;-1,895209432E0
1,462816349E2;-6,189591885E-1;-5,392413139E-1;-2,202474594E0
1,463816349E2;-9,356928468E-1;-8,249735236E-1;-1,427592039E0
1,464816349E2;-1,450804919E-1;-3,222314268E-2;-5,765040517E-1
1,465816349E2;6,285803318E-1;9,783006907E-1;2,032043219E0
1,466816349E2;5,739079118E-1;6,159048676E-1;2,477364063E0
1,467816349E2;3,478877544E-1;-5,839871764E-1;1,878257871E0
1,468816349E2;1,996002197E-1;-1,094212413E0;3,956879675E-1
1,469816349E2;-9,101892263E-2;2,683225572E-1;-1,671021819E0
1,470816349E2;-7,055493593E-1;-5,887213945E-1;-2,323120594E0
1,471816349E2;-1,190270901E0;-5,453499556E-1;-1,702175975E0
1,472816349E2;-6,597344577E-2;3,207042441E-2;-4,332561791E-1
1,473816349E2;4,671591818E-1;1,029460669E0;1,105055213E0
1,474816349E2;4,769330323E-1;4,841107130E-1;2,674520731E0
1,475816349E2;2,386955917E-1;-6,017022580E-2;2,656958342E0
1,476816349E2;8,399397135E-2;-7,866417170E-1;1,328631938E-1
1,477816349E2;1,466076523E-1;2,489275932E-1;-1,136514783E0
1,478816349E2;-5,540547967E-1;-4,613559842E-1;-1,905135989E0
1,479816349E2;-7,128797174E-1;-1,890627891E-1;-2,506838322E0
1,480816349E2;-5,057964325E-1;-8,052731156E-1;-1,220966935E0
1,481816349E2;1,571450830E-1;1,232420653E-1;-3,020728528E-1
1,482816349E2;8,431467414E-1;1,178053617E0;2,052965403E0
1,483816349E2;4,717406929E-1;6,446155310E-1;2,734538317E0
1,484816349E2;6,933320314E-2;-3,480404615E-1;1,637271523E0
1,485816349E2;-1,368338168E-1;-7,073819637E-1;1,412625909E-1
1,486816349E2;-1,001819000E-1;-1,985311974E-3;-1,474170566E0
1,487816349E2;-7,024950534E-2;-4,282165468E-1;-2,137417555E0
1,488816349E2;-1,075733662E0;-9,198103547E-1;-1,795332909E0
1,489816349E2;-6,087272167E-1;-4,903720617E-1;-1,284496903E0
1,490816349E2;5,416847467E-1;1,349095941E0;1,250593901E0
1,491816349E2;6,821837425E-1;1,039081812E0;2,205070734E0
1,492816349E2;2,687807083E-1;-2,237294018E-1;2,536312580E0
1,493816349E2;1,869247705E-1;-7,556403279E-1;1,214705586E0
1,494816349E2;1,243110746E-1;1,175915636E-2;-8,936958313E-1
1,495816349E2;-3,243694305E-1;-3,756821156E-2;-2,287232161E0
1,496816349E2;-9,413433671E-1;-6,817256212E-1;-1,864055276E0
1,497816349E2;-5,641340613E-1;-5,280929804E-1;-9,662361145E-1
1,498816349E2;2,357939780E-1;4,902193546E-1;8,979719132E-2
1,499816349E2;5,878050923E-1;8,901833892E-1;2,312277555E0
1,500816349E2;3,533855379E-1;3,882048726E-1;2,707507372E0
1,501816349E2;-5,574145541E-2;-5,931501389E-1;1,283580542E0
1,502816349E2;-1,740965992E-2;-6,611089110E-1;-2,866485119E-1
1,503816349E2;-8,842274547E-2;7,330383174E-3;-1,672701716E0
1,504816349E2;-2,732094824E-1;-4,495968223E-1;-2,351220369E0
1,505816349E2;-1,038623691E0;-9,640980959E-1;-1,668120265E0
1,506816349E2;-2,892446816E-1;-4,082106948E-1;-1,055880547E0
1,507816349E2;7,880161405E-1;1,307404399E0;1,476308584E0
1,508816349E2;7,130324841E-1;9,117164016E-1;2,270586014E0
1,509816349E2;2,535090744E-1;-2,669481039E-1;2,381305456E0
1,510816349E2;1,878410578E-1;-5,288565755E-1;1,095739484E0
1,511816349E2;1,542434692E-1;1,331686229E-1;-1,278082848E0
1,512816349E2;-9,712757170E-2;4,993823543E-2;-1,529911995E0
1,513816349E2;-8,981246352E-1;-4,167627990E-1;-2,016924381E0
1,514816349E2;-1,127046347E0;-7,367035151E-1;-1,594663739E0
1,515816349E2;2,490803003E-1;6,244570017E-1;1,777617931E-1
1,516816349E2;4,663956165E-1;1,205389857E0;1,470505357E0
1,517816349E2;2,493857294E-1;3,500257730E-1;2,765539646E0
1,518816349E2;4,230241850E-2;-2,435825169E-1;2,455067396E0
1,519816349E2;2,535090782E-2;-6,462954283E-1;-3,874412775E-1
1,520816349E2;6,719517522E-3;-4,444044828E-2;-1,706146598E0
1,521816349E2;-2,222022265E-1;-4,120286107E-1;-2,213164806E0
1,522816349E2;-1,089020014E0;-8,889616728E-1;-1,686904430E0
1,523816349E2;-3,912591934E-1;-4,922046661E-1;-1,037860036E0
1,524816349E2;7,055493593E-1;1,190118194E0;1,468214631E0
1,525816349E2;6,843217611E-1;1,126435518E0;2,333199739E0
1,526816349E2;1,395827085E-1;-2,872593701E-1;2,474004269E0
1,527816349E2;1,828014255E-1;-5,526803136E-1;1,224784851E0
1,528816349E2;8,796459436E-2;3,407101035E-1;-1,367574573E0
1,529816349E2;-6,169738993E-2;2,686280012E-1;-1,603063107E0
1,530816349E2;-7,557930350E-1;-4,114177525E-1;-1,873676419E0
1,531816349E2;-1,195921421E0;-7,431175709E-1;-1,649030685E0
1,532816349E2;8,292495459E-2;6,159048676E-1;-4,428773001E-2
1,533816349E2;4,199698567E-1;1,083674908E0;1,394299865E0
1,534816349E2;3,692680299E-1;5,137376785E-1;2,830444098E0
1,535816349E2;1,237002090E-1;-1,346957833E-1;2,630385637E0
1,536816349E2;-1,760819107E-1;-7,596109509E-1;-1,444696337E-1
1,537816349E2;2,733621933E-2;1,640173197E-1;-1,146288633E0
1,538816349E2;-2,444988191E-1;-5,514585972E-1;-2,161393881E0
1,539816349E2;-8,071057200E-1;-4,874704778E-1;-1,871080279E0
1,540816349E2;-6,172793508E-1;-8,923214078E-1;-1,240209222E0
1,541816349E2;1,325577646E-1;1,255328059E-1;-3,995058835E-1
1,542816349E2;7,006624341E-1;1,003346205E0;2,070069551E0
1,543816349E2;4,865541756E-1;4,923573732E-1;2,737439871E0
1,544816349E2;1,588249654E-1;-4,353941977E-1;1,486845970E0
1,545816349E2;1,850921661E-1;6,673702598E-2;-1,026864529E0
1,546816349E2;1,284344196E-1;1,495092660E-1;-1,591762066E0
1,547816349E2;-7,226535678E-1;-5,824599862E-1;-1,980272412E0
1,548816349E2;-1,094212413E0;-6,181956530E-1;-1,721112847E0
1,549816349E2;2,932153270E-2;2,138028294E-1;-3,651446998E-1
1,550816349E2;5,316054821E-1;1,270752430E0;1,111163855E0
1,551816349E2;4,460843503E-1;6,262896061E-1;2,817768574E0
1,552816349E2;1,611157060E-1;-1,288925707E-1;2,679102182E0
1,553816349E2;5,619960278E-2;-4,082106948E-1;-1,386664063E-1
1,554816349E2;4,123340361E-3;1,947132945E-1;-1,219439745E0
1,555816349E2;-5,125159621E-1;-4,312708676E-1;-2,758514643E0
1,556816349E2;-1,155909777E0;-1,199281216E0;-2,080454350E0
1,557816349E2;-4,703662544E-2;2,044871449E-1;-3,894266114E-2
1,558816349E2;5,726861954E-1;1,618487477E0;1,644143820E0
1,559816349E2;3,518583775E-1;-1,937969923E-1;3,105944395E0
1,560816349E2;3,472768962E-1;-2,138028294E-1;2,311361313E0
1,561816349E2;-6,062837690E-2;1,601994038E-1;-1,849394560E0
1,562816349E2;-1,598939747E-1;-1,872301996E-1;-2,160325050E0
1,563816349E2;-9,570731521E-1;-7,750352621E-1;-2,174374819E0
1,564816349E2;-8,917105198E-1;-8,297077417E-1;-1,410640597E0
1,565816349E2;7,692320347E-1;1,275181174E0;1,105971575E0
1,566816349E2;9,543242455E-1;1,177748203E0;2,569757462E0
1,567816349E2;1,600466967E-1;2,580905706E-2;2,450791359E0
1,568816349E2;-7,895433158E-2;-6,734789610E-1;8,535314798E-1
1,569816349E2;-6,795875728E-2;2,342668176E-1;-1,548237920E0
1,570816349E2;-7,953465581E-1;-5,099197626E-1;-2,399020433E0
1,571816349E2;-1,237154841E0;-9,460775256E-1;-1,659415483E0
1,572816349E2;2,254092693E-1;4,859432876E-1;4,031710625E-1
1,573816349E2;8,822421432E-1;1,454470158E0;2,353511095E0
1,574816349E2;4,729624093E-1;6,246097088E-1;3,008816719E0
1,575816349E2;8,017606288E-2;-6,885978580E-1;1,363298535E0
1,576816349E2;1,065959856E-1;-4,242459238E-1;-4,068362415E-1
1,577816349E2;-2,997821271E-1;-3,981314301E-1;-2,013259172E0
1,578816349E2;-7,055493593E-1;-4,066835344E-1;-2,464383125E0
1,579816349E2;-5,436700583E-1;-6,737843752E-1;-1,302517414E0
1,580816349E2;9,178250283E-2;3,074179292E-1;-1,333213449E-1
1,581816349E2;7,073819637E-1;9,552405477E-1;2,620153666E0
1,582816349E2;8,582656831E-2;-4,010330439E-1;2,100002050E0
1,583816349E2;-6,276640296E-2;-6,517932415E-1;3,455969989E-1
1,584816349E2;-7,452555746E-2;1,629483104E-1;-1,723708987E0
1,585816349E2;-4,056145251E-1;-3,851505518E-1;-2,561663389E0
1,586816349E2;-9,871582389E-1;-9,498954415E-1;-1,632537365E0
1,587816349E2;-2,429716438E-1;-3,300199509E-1;-8,232936263E-1
1,588816349E2;7,976372838E-1;1,382235289E0;2,232559681E0
1,589816349E2;6,635523438E-1;7,782423496E-1;2,846784830E0
1,590816349E2;1,380555481E-1;-7,670940161E-1;1,387885809E0
1,591816349E2;1,151480973E-1;-5,677992702E-1;-5,426010489E-1
1,592816349E2;-1,211040318E-1;-7,299839705E-2;-1,983632207E0
1,593816349E2;-7,603744864E-1;-4,306600094E-1;-2,606256485E0
1,594816349E2;-5,954409242E-1;-4,932736754E-1;-1,252273798E0
1,595816349E2;1,160643995E-2;2,165517360E-1;-9,758572280E-2
1,596816349E2;3,932445049E-1;1,124908328E0;2,371684313E0
1,597816349E2;1,311833113E-1;5,166392922E-1;2,933680296E0
1,598816349E2;-1,892155111E-1;-6,317873597E-1;7,644978762E-1
1,599816349E2;-7,360926270E-2;-3,906483352E-1;-7,724391222E-1
1,600816349E2;-2,968805134E-1;-7,386888266E-1;-2,419942617E0
1,601816349E2;-6,102544069E-1;-5,222898126E-1;-2,282497883E0
1,602816349E2;-1,901318133E-1;-3,576616049E-1;-1,087492824E0
1,603816349E2;4,253149331E-1;6,026185751E-1;3,184134960E-1
1,604816349E2;5,540547967E-1;8,465065360E-1;2,595108271E0
1,605816349E2;1,745547503E-1;1,656972021E-1;2,869539499E0
1,606816349E2;8,200865984E-2;-5,630650520E-1;1,056796908E-1
1,607816349E2;-8,628471941E-2;1,146899462E-1;-1,758681059E0
1,608816349E2;-2,794708610E-1;-4,607451260E-1;-2,517375708E0
1,609816349E2;-9,596692920E-1;-9,718865752E-1;-1,596190929E0
1,610816349E2;-3,112358451E-1;-2,842050493E-1;-7,174612284E-1
1,611816349E2;6,985244155E-1;1,581988215E0;2,209499598E0
1,612816349E2;4,418082833E-1;5,789475441E-1;2,852587938E0
1,613816349E2;1,695151068E-2;-6,508769393E-1;1,513418674E0
1,614816349E2;8,353582025E-2;-6,979135275E-1;-1,490511149E-1
1,615816349E2;-2,707660198E-1;-3,115412779E-2;-2,030363321E0
1,616816349E2;-6,705773473E-1;-1,716531366E-1;-2,589152336E0
1,617816349E2;-5,380195379E-1;-6,349944472E-1;-1,505324721E0
1,618816349E2;2,626720630E-2;2,677116990E-1;-3,878994286E-1
1,619816349E2;6,391177773E-1;1,108567715E0;2,453234911E0
1,620816349E2;3,023782969E-1;5,274821520E-1;3,232393503E0
1,621816349E2;-4,367686436E-2;-5,911648273E-1;7,980954647E-1
1,622816349E2;5,604688451E-2;-3,187189400E-1;-7,988590002E-1
1,623816349E2;-3,582724631E-1;-2,912299931E-1;-2,289217472E0
1,624816349E2;-8,703302741E-1;-6,829473376E-1;-2,262492180E0
1,625816349E2;-4,705189466E-1;-4,011857510E-1;-1,217149019E0
1,626816349E2;1,666134894E-1;5,303837657E-1;1,586722434E-1
1,627816349E2;4,080579877E-1;6,756169796E-1;2,677575111E0
1,628816349E2;1,467603743E-1;1,007927656E-1;3,127477407E0
1,629816349E2;5,360342562E-2;-8,969029188E-1;2,235766798E-1
1,630816349E2;3,486513495E-1;-7,987063378E-2;-1,168737888E0
1,631816349E2;-2,211332172E-1;-7,933612466E-1;-2,526386023E0
1,632816349E2;-1,227228284E0;-8,043568134E-1;-1,545183659E0
1,633816349E2;-1,861611903E-1;-2,487748712E-1;-9,463829994E-1
1,634816349E2;8,698720932E-1;1,536936998E0;1,879174232E0
1,635816349E2;5,367978215E-1;7,907650471E-1;2,740646839E0
1,636816349E2;1,421788931E-1;-4,647157490E-1;1,788002610E0
1,637816349E2;-7,528914511E-2;-7,438811660E-1;4,001167417E-2
1,638816349E2;-6,597344577E-2;-1,389718428E-2;-1,723556280E0
1,639816349E2;-4,101960063E-1;-4,935791194E-1;-2,366644621E0
1,640816349E2;-1,238987446E0;-7,357872128E-1;-1,595885396E0
1,641816349E2;-8,720101416E-2;-1,614211351E-1;-9,033169746E-1
1,642816349E2;8,113817573E-1;1,510058880E0;1,923309207E0
1,643816349E2;4,101960063E-1;7,524332404E-1;2,662761688E0
1,644816349E2;1,324050426E-1;-5,065600276E-1;1,877952456E0
1,645816349E2;1,557706390E-2;-9,980010986E-1;9,315694869E-2
1,646816349E2;-3,298672289E-2;-1,832595794E-3;-1,552514076E0
1,647816349E2;-2,880229652E-1;-5,396994352E-1;-2,289828300E0
1,648816349E2;-1,254564524E0;-5,497786999E-1;-1,665065885E0
1,649816349E2;-4,005748928E-1;-3,799581826E-1;-1,044426799E0
1,650816349E2;6,143777370E-1;1,159116745E0;1,725083470E0
1,651816349E2;5,021312237E-1;7,698429227E-1;2,422538757E0
1,652816349E2;2,397646010E-2;-2,774855494E-1;2,175596476E0
1,653816349E2;3,390302137E-2;-5,187773108E-1;6,840163469E-1
1,654816349E2;2,422080636E-1;2,897028327E-1;-1,402699351E0
1,655816349E2;-2,512183189E-1;-5,845980644E-1;-1,943925977E0
1,656816349E2;-1,077413559E0;-9,636399150E-1;-1,842674971E0
1,657816349E2;-4,978551716E-2;4,978551716E-2;-3,677408695E-1
1,658816349E2;5,621487498E-1;1,076191902E0;1,170570493E0
1,659816349E2;4,448626041E-1;6,855435371E-1;2,732858419E0
1,660816349E2;6,627888232E-2;-1,679879427E-1;2,559219837E0
1,661816349E2;-4,871650413E-2;-4,854851663E-1;-3,904955983E-1
1,662816349E2;1,508837193E-1;2,186897546E-1;-1,361007810E0
1,663816349E2;-4,923573732E-1;-4,789183438E-1;-2,359619617E0
1,664816349E2;-1,048702955E0;-9,433286786E-1;-2,102139950E0
1,665816349E2;-1,157589629E-1;-1,702786833E-1;-7,440338731E-1
1,666816349E2;6,423248053E-1;1,076497316E0;7,858781219E-1
1,667816349E2;5,085453391E-1;1,003346205E0;2,664899588E0
1,668816349E2;2,403754741E-1;2,408336252E-1;2,753933191E0
1,669816349E2;-8,827003092E-2;-7,684684992E-1;3,436116874E-2
1,670816349E2;5,009094998E-2;3,069597855E-2;-1,128420830E0
1,671816349E2;-2,362521291E-1;-5,554292202E-1;-2,275320292E0
1,672816349E2;-8,196284175E-1;-8,316930532E-1;-2,029294252E0
1,673816349E2;-5,781839490E-1;-3,637702465E-1;-1,195157886E0
1,674816349E2;1,627955884E-1;6,441574097E-1;-1,343903504E-2
1,675816349E2;4,879286289E-1;7,956519723E-1;2,425440550E0
1,676816349E2;3,159700334E-1;3,938553631E-1;2,809063911E0
1,677816349E2;-4,932736978E-2;-8,729264140E-1;9,195048809E-1
1,678816349E2;-1,267545391E-2;-2,631302178E-1;-6,423248053E-1
1,679816349E2;-9,697485715E-2;-1,718058437E-1;-1,887268186E0
1,680816349E2;-4,940372705E-1;-4,196644127E-1;-2,406961679E0
1,681816349E2;-8,538368940E-1;-6,459900141E-1;-1,511280656E0
1,682816349E2;4,387539625E-1;1,023046613E0;9,030115604E-1
1,683816349E2;6,220135093E-1;1,230129838E0;1,992184281E0
1,684816349E2;1,087340117E-1;-1,815796942E-1;2,804482222E0
1,685816349E2;2,486221492E-1;-5,743660331E-1;1,743409395E0
1,686816349E2;6,520986557E-2;7,376197726E-2;-1,015258074E0
1,687816349E2;4,520402849E-2;2,926044464E-1;-1,495550871E0
1,688816349E2;-5,905539989E-1;-7,307475209E-1;-2,075720072E0
1,689816349E2;-1,039081812E0;-5,679519773E-1;-1,786475420E0
1,690816349E2;1,734857261E-1;4,612032473E-1;-3,721696436E-1
1,691816349E2;4,592179358E-1;1,322370529E0;1,041983366E0
1,692816349E2;2,313652188E-1;5,433646441E-1;2,716059685E0
1,693816349E2;-2,672535367E-2;-1,186605766E-1;2,725375175E0
1,694816349E2;1,908953860E-2;-7,298312783E-1;-2,443460934E-2
1,695816349E2;1,169806942E-1;9,178250283E-2;-1,075275540E0
1,696816349E2;-3,642283976E-1;-4,737260044E-1;-2,086562872E0
1,697816349E2;-9,590584636E-1;-8,629998565E-1;-2,102139950E0
1,698816349E2;-7,014260292E-1;-6,236934066E-1;-1,225548387E0
1,699816349E2;-5,268712714E-2;-1,143845171E-1;-3,503312171E-1
1,700816349E2;1,101237297E0;1,273653984E0;1,998140216E0
1,701816349E2;8,600982428E-1;4,857905805E-1;2,608089209E0
1,702816349E2;4,098905921E-1;-4,700607955E-1;1,667509437E0
1,703816349E2;1,838704348E-1;-2,241875380E-1;3,649919853E-2
1,704816349E2;-1,388191283E-1;5,134322643E-1;-1,367727280E0
1,705816349E2;-3,298672438E-1;2,962696366E-2;-1,987297416E0
1,706816349E2;-1,210429430E0;-4,514294267E-1;-1,617876649E0
1,707816349E2;-2,467895597E-1;-7,712173462E-2;-5,250386596E-1
1,708816349E2;2,144137025E-1;8,100073338E-1;7,170031071E-1
1,709816349E2;3,052799106E-1;4,975497425E-1;2,346791506E0
1,710816349E2;6,658431143E-2;1,316414624E-1;2,700177193E0
1,711816349E2;6,520986557E-2;-5,902485251E-1;8,594874144E-1
1,712816349E2;-5,039638374E-3;-7,666358948E-1;-5,120577812E-1
1,713816349E2;3,955352306E-2;-4,914411008E-1;-1,436144233E0
1,714816349E2;-3,431535661E-1;-2,232712507E-1;-1,908343077E0
1,715816349E2;-9,217956662E-1;-5,400048494E-1;-1,779450417E0
1,716816349E2;-4,905247986E-1;-9,560040832E-1;-1,381624460E0
1,717816349E2;9,615018964E-1;8,407033086E-1;8,602510095E-1
1,718816349E2;8,982773423E-1;8,535314798E-1;1,920713067E0
1,719816349E2;2,357939780E-1;2,412917651E-2;2,644282818E0
1,720816349E2;1,895209402E-1;-4,263839424E-1;1,778686881E0
1,721816349E2;1,420261711E-2;-2,832887471E-1;-9,253081083E-1
1,722816349E2;6,551529467E-2;6,765332818E-2;-1,252731919E0
1,723816349E2;-6,305656433E-1;-6,120869517E-1;-1,939649820E0
1,724816349E2;-1,044732332E0;-7,348709106E-1;-1,744478464E0
1,725816349E2;-4,444044828E-2;-2,261728644E-1;-1,104749799E0
1,726816349E2;6,311765313E-1;4,189008474E-1;7,024950534E-2
1,727816349E2;7,835873961E-1;5,858197808E-1;2,180178165E0
1,728816349E2;6,294966340E-1;-6,108652451E-4;2,656194687E0
1,729816349E2;2,157881409E-1;-7,867944241E-1;9,019425511E-1
1,730816349E2;-1,351539344E-1;-1,022588372E0;-6,030766964E-1
1,731816349E2;-2,626720630E-2;-1,495092660E-1;-1,616349459E0
1,732816349E2;-6,994407177E-1;-1,505630136E0;-2,031432390E0
1,733816349E2;-9,677632451E-1;-1,190270901E0;-1,775174379E0
1,734816349E2;7,408268452E-1;6,088799238E-1;-3,422372639E-1
1,735816349E2;9,309586287E-1;8,319984674E-1;1,110705733E0
1,736816349E2;7,919867635E-1;4,524984360E-1;2,442544699E0
1,737816349E2;3,605632186E-1;-4,323398769E-1;2,395813465E0
1,738816349E2;2,932153270E-2;-9,549350739E-1;-1,789835095E-1
1,739816349E2;3,539963961E-1;-2,006692290E-1;-1,259909511E0
1,740816349E2;7,437284291E-2;-7,304421067E-1;-1,992947817E0
1,741816349E2;-4,749477208E-1;-7,593054771E-1;-1,809841037E0
1,742816349E2;-3,130684495E-1;-7,415903807E-1;-1,493260145E0
1,743816349E2;-1,557706390E-2;-1,603521258E-1;-9,773843884E-1
1,744816349E2;6,653849483E-1;1,019686818E0;1,818698525E0
1,745816349E2;5,522221923E-1;6,181956530E-1;2,526996851E0
1,746816349E2;3,283400834E-1;-6,725626588E-1;1,810451865E0
1,747816349E2;1,507309973E-1;-1,048244715E0;3,874412775E-1
1,748816349E2;2,493857294E-1;-3,669773042E-1;-1,585958838E0
1,749816349E2;-1,656972021E-1;-5,195409060E-1;-1,614058733E0
1,750816349E2;-7,782423496E-1;-6,380487680E-1;-1,717753053E0
1,751816349E2;-7,307475209E-1;-8,827002645E-1;-1,451263070E0
1,752816349E2;2,251038402E-1;1,551597714E-1;-7,238753140E-2
1,753816349E2;7,064656615E-1;8,662069440E-1;1,020144939E0
1,754816349E2;7,678576112E-1;-8,827003092E-2;2,452318430E0
1,755816349E2;6,688974500E-1;-7,898487449E-1;2,695748329E0
1,756816349E2;3,761402667E-1;-5,088507533E-1;-1,806633919E-1
1,757816349E2;-2,677116990E-1;-6,627888232E-2;-1,525025129E0
1,758816349E2;-1,185078546E-1;-1,588249654E-1;-1,205237150E0
1,759816349E2;2,385428846E-1;-2,565633953E-1;-1,076191902E0
1,760816349E2;1,635591686E-1;-3,338378668E-1;-9,416487813E-1
1,761816349E2;2,060143054E-1;-8,933904022E-2;-4,532620013E-1
1,762816349E2;1,130100712E-1;-1,982257664E-1;-2,947424948E-1
1,763816349E2;1,539380401E-1;-4,841107130E-2;-1,195768714E-1
1,764816349E2;1,817324162E-1;3,665191587E-3;6,719517522E-3
1,765816349E2;2,820670307E-1;-1,156062484E-1;5,726861581E-2
1,766816349E2;3,462078869E-1;-1,324050426E-1;-7,269296050E-2
1,767816349E2;-2,716823220E-1;-4,302018583E-1;-1,502881169E0
1,768816349E2;-1,733330190E-1;-3,353650272E-1;-1,416901946E0
1,769816349E2;6,551529765E-1;1,140027285E0;1,008843899E0
1,770816349E2;5,242751241E-1;2,922990322E-1;2,621222734E0
1,771816349E2;4,766276181E-1;-2,367102802E-1;2,790432453E0
1,772816349E2;2,458732575E-2;3,298672289E-2;1,823432744E-1
1,773816349E2;-5,818491429E-2;5,726861954E-1;-1,093448758E0
1,774816349E2;-3,956879675E-1;-4,182899892E-1;-2,182774305E0
1,775816349E2;-9,491318464E-1;-3,759875596E-1;-2,104125261E0
1,776816349E2;-1,844813079E-1;-2,771801054E-1;-1,080467939E0
1,777816349E2;4,821254015E-1;1,003040791E0;4,546364546E-1
1,778816349E2;4,749477208E-1;6,948592067E-1;3,027448177E0
1,779816349E2;1,667662114E-1;-7,330383174E-3;2,940705299E0
1,780816349E2;1,574505121E-1;-8,555167913E-1;-1,408044398E-1
1,781816349E2;-1,160643995E-1;3,054326177E-1;-1,777006984E0
1,782816349E2;-4,925101101E-1;-4,172209501E-1;-2,518139362E0
1,783816349E2;-9,699012637E-1;-8,762862086E-1;-1,659109950E0
1,784816349E2;5,535966158E-1;1,028086185E0;7,741189599E-1
1,785816349E2;6,997461319E-1;9,363036752E-1;2,626262426E0
1,786816349E2;4,214970171E-1;7,347181439E-1;3,029280663E0
1,787816349E2;6,566801667E-2;-4,231768847E-1;1,384984255E0
1,788816349E2;8,170322329E-2;-4,857905805E-1;-3,828597963E-1
1,789816349E2;-3,753767014E-1;-1,912008226E-1;-2,064113617E0
1,790816349E2;-8,394815922E-1;-1,588249654E-1;-2,423455238E0
1,791816349E2;-7,767151594E-1;-7,846564054E-1;-1,193325281E0
1,792816349E2;2,365575731E-1;4,915938079E-1;-9,239336848E-2
1,793816349E2;5,885686874E-1;1,002429843E0;2,682767391E0
1,794816349E2;2,719877362E-1;1,374446750E-1;3,144581556E0
1,795816349E2;1,366810948E-1;-1,006858587E0;3,533855379E-1
1,796816349E2;-1,892155111E-1;-2,078468949E-1;-1,102000952E0
1,797816349E2;-3,431535661E-1;-2,984076738E-1;-3,080440760E0
1,798816349E2;-7,049384713E-1;-5,207626224E-1;-2,529134750E0
1,799816349E2;-3,126102984E-1;2,761110961E-1;-4,231768847E-1
1,800816349E2;-1,301143020E-1;4,926628172E-1;4,605923891E-1
1,801816349E2;6,382014751E-1;7,325801253E-1;2,161393881E0
1,802816349E2;6,032294035E-1;-4,121813178E-1;2,497828007E0
1,803816349E2;4,486805201E-1;-1,794416606E-1;1,214247346E0
1,804816349E2;-5,222897977E-2;2,620611787E-1;-1,325577617E0
1,805816349E2;-6,597344875E-1;4,292855561E-1;-1,813048005E0
1,806816349E2;-8,413141370E-1;-4,398229718E-1;-2,158797741E0
1,807816349E2;-9,217956662E-1;-7,962628603E-1;-1,813658953E0
1,808816349E2;1,453859210E-1;7,718282342E-1;6,304129362E-1
1,809816349E2;9,758572280E-2;6,856962442E-1;1,542892933E0
1,810816349E2;3,002402782E-1;-2,898555696E-1;2,721557379E0
1,811816349E2;5,151121020E-1;-5,833763257E-2;2,305099964E0
1,812816349E2;4,893030524E-1;-1,237002090E-1;1,123992056E-1
1,813816349E2;-6,948592514E-2;8,200865984E-2;-9,108000994E-1
1,814816349E2;-6,513350606E-1;1,734857261E-1;-1,544572830E0
1,815816349E2;-5,416847467E-1;1,528690308E-1;-1,888337135E0
1,816816349E2;-5,317581892E-1;-4,560109079E-1;-1,596190929E0
1,817816349E2;-5,355761051E-1;-4,630358517E-1;-1,091463447E0
1,818816349E2;6,186537743E-1;7,353290319E-1;1,500590444E0
1,819816349E2;7,701483369E-1;4,677700698E-1;2,537992477E0
1,820816349E2;7,971791625E-1;-6,294966340E-1;2,152994633E0
1,821816349E2;3,697261810E-1;-2,200642079E-1;3,903428912E-1
1,822816349E2;-1,791362315E-1;9,101892263E-2;-1,061072946E0
1,823816349E2;2,596177394E-3;4,311181605E-1;-1,198364854E0
1,824816349E2;-1,143387079E0;-1,886046380E-1;-1,712255239E0
1,825816349E2;-9,210320711E-1;-5,059491396E-1;-1,441947460E0
1,826816349E2;-3,419318199E-1;-2,005165219E-1;-8,268061280E-1
1,827816349E2;2,692388594E-1;9,688322544E-1;1,134529471E0
1,828816349E2;3,313944042E-1;6,224716902E-1;1,634217262E0
1,829816349E2;1,878410578E-1;-1,715004146E-1;2,381305456E0
1,830816349E2;2,750420868E-1;-5,355761051E-1;8,492553830E-1
1,831816349E2;1,178969890E-1;-3,917173445E-1;-3,071125150E-1
1,832816349E2;-5,528330430E-2;3,428481221E-1;-1,496314406E0
1,833816349E2;-2,052507252E-1;-9,010262787E-3;-1,948202014E0
1,834816349E2;-9,488264322E-1;-4,039346576E-1;-1,562746048E0
1,835816349E2;-8,127561808E-1;-6,847799420E-1;-1,501201391E0
1,836816349E2;3,623957932E-1;2,871066630E-1;1,687515229E-1
1,837816349E2;5,740606189E-1;7,527387142E-1;1,144456029E0
1,838816349E2;5,102251768E-1;3,720169365E-1;2,406350851E0
1,839816349E2;2,197587788E-1;-3,469714522E-1;2,462856054E0
1,840816349E2;2,046398520E-1;-5,277875662E-1;4,218024611E-1
1,841816349E2;1,062905490E-1;5,345070735E-3;-5,911648273E-1
1,842816349E2;-3,017674387E-1;3,743076921E-1;-1,593594670E0
1,843816349E2;-4,002694488E-1;-3,970623948E-3;-2,029599667E0
1,844816349E2;-9,384417534E-1;-5,442809463E-1;-1,346652389E0
1,845816349E2;-4,787656367E-1;-4,352414906E-1;-1,079398870E0
1,846816349E2;1,936442852E-1;6,759223938E-1;8,190175891E-1
1,847816349E2;3,657555580E-1;7,122688890E-1;1,480737329E0
1,848816349E2;1,485929638E-1;-4,792237878E-1;2,457358122E0
1,849816349E2;3,772092983E-2;-3,990477324E-1;2,030363321E0
1,850816349E2;-9,285151958E-2;-1,074512005E0;1,082758680E-1
1,851816349E2;2,113593817E-1;-2,249511331E-1;-5,181664228E-1
1,852816349E2;2,504547499E-2;7,988590002E-1;-2,511572361E0
1,853816349E2;-5,919284225E-1;-4,127921760E-1;-2,217899084E0
1,854816349E2;-6,754642725E-1;-1,214705586E0;-1,078024387E0
1,855816349E2;2,678644061E-1;3,752239645E-1;6,956228018E-1
1,856816349E2;4,634940028E-1;9,966266751E-1;1,333824277E0
1,857816349E2;2,309070677E-1;1,721112877E-1;2,638937950E0
1,858816349E2;1,631010175E-1;-1,733330190E-1;2,054034472E0
1,859816349E2;2,525927722E-1;-1,866193265E-1;-3,207042515E-1
1,860816349E2;-1,172861308E-1;-1,191187203E-1;-6,476698518E-1
1,861816349E2;-2,173153162E-1;3,468187451E-1;-2,501340389E0
1,862816349E2;-8,872817755E-1;-3,097086847E-1;-1,956448674E0
1,863816349E2;-7,826710939E-1;-8,032878041E-1;-1,246775985E0
1,864816349E2;3,512475174E-3;2,157881409E-1;-3,361285925E-1
1,865816349E2;7,509061098E-1;1,224173903E0;2,087326527E0
1,866816349E2;4,360050559E-1;5,696318150E-1;2,879007816E0
1,867816349E2;2,315179259E-1;-5,968153477E-1;1,656208396E0
1,868816349E2;2,945897579E-1;-1,149953827E-1;-8,032877743E-2
1,869816349E2;-4,062253833E-1;4,494441152E-1;-1,357648015E0
1,870816349E2;-3,695734739E-1;4,161519408E-1;-1,810909986E0
1,871816349E2;-8,996517658E-1;-6,238461137E-1;-1,481959105E0
1,872816349E2;-7,206682563E-1;-5,418374538E-1;-1,444696307E0
1,873816349E2;1,218676195E-1;4,225660264E-1;5,656611919E-1
1,874816349E2;5,534439087E-1;1,114981771E0;1,856266737E0
1,875816349E2;2,938261926E-1;-2,932153046E-1;2,561968803E0
1,876816349E2;1,591303945E-1;-7,553348541E-1;2,232254267E0
1,877816349E2;8,735372871E-2;-5,222898126E-1;-1,226311997E-1
1,878816349E2;8,704829961E-2;-1,156062484E-1;-9,280570149E-1
1,879816349E2;-7,215845585E-1;3,298672289E-2;-2,191020966E0
1,880816349E2;-1,024726391E0;-7,817547917E-1;-1,677894115E0
1,881816349E2;-5,070181489E-1;-3,791945875E-1;-9,926560521E-1
1,882816349E2;7,264714837E-1;9,173668623E-1;1,366505504E0
1,883816349E2;8,193230033E-1;9,169087410E-1;2,138028383E0
1,884816349E2;3,504839242E-1;-5,410739183E-1;2,452013016E0
1,885816349E2;3,268128932E-1;-4,031710625E-1;1,167974353E0
1,886816349E2;-9,575312585E-2;2,842050493E-1;-8,979719281E-1
1,887816349E2;-5,635231733E-2;5,816964507E-1;-1,371850610E0
1,888816349E2;-3,597996235E-1;-3,219259977E-1;-1,572061658E0
1,889816349E2;-7,212791443E-1;-3,669773042E-1;-1,557095528E0
1,890816349E2;-5,465716720E-1;-2,580905557E-1;-1,193630695E0
1,891816349E2;-5,925392732E-2;-1,624901593E-1;-4,792237878E-1
1,892816349E2;6,032294035E-1;1,017396092E0;1,399492264E0
1,893816349E2;5,134322643E-1;6,305656433E-1;2,138639212E0
1,894816349E2;3,620903790E-1;-4,772384763E-1;2,100612879E0
1,895816349E2;2,211332172E-1;-8,093964458E-1;1,060156584E0
1,896816349E2;-2,944370508E-1;9,208793938E-2;-4,653266072E-1
1,897816349E2;-4,879286289E-1;9,162978269E-3;-1,216843605E0
1,898816349E2;-7,076873779E-1;3,298672289E-2;-2,504394770E0
1,899816349E2;-1,065807104E0;-6,950119138E-1;-2,115731716E0
1,900816349E2;9,590584040E-2;-2,134974003E-1;-4,402811229E-1
1,901816349E2;3,080287874E-1;8,964447677E-2;3,145956099E-1
1,902816349E2;8,147414923E-1;9,534079432E-1;1,620320082E0
1,903816349E2;6,473644376E-1;-2,550362423E-2;2,337628603E0
1,904816349E2;6,333145499E-1;-3,423899710E-1;1,777923346E0
1,905816349E2;-1,366810948E-1;-1,910481006E-1;-7,082982659E-1
1,906816349E2;-1,988366395E-1;3,448334336E-1;-1,104902506E0
1,907816349E2;-6,160575747E-1;-1,267545391E-2;-2,009288549E0
1,908816349E2;-8,781188130E-1;-5,222897977E-2;-1,856266737E0
1,909816349E2;-3,313944042E-1;-2,244929820E-1;-9,747881889E-1
1,910816349E2;1,974621862E-1;-3,909537569E-2;-2,414444834E-1
1,911816349E2;5,835290551E-1;2,528982162E-1;2,098016739E0
1,912816349E2;6,386595964E-1;3,013092875E-1;2,756529331E0
1,913816349E2;4,019493461E-1;-5,137376785E-1;1,256397128E0
1,914816349E2;1,739438772E-1;-2,864958048E-1;5,293147564E-1
1,915816349E2;-3,975205719E-1;-7,727445662E-2;-4,598288238E-1
1,916816349E2;-4,676173329E-1;3,431535661E-1;-1,007622242E0
1,917816349E2;-5,389358401E-1;2,092213482E-1;-1,568091035E0
1,918816349E2;-4,541783035E-1;1,482875347E-1;-1,649794340E0
1,919816349E2;-3,535382748E-1;-2,203696370E-1;-1,256855249E0
1,920816349E2;2,580905706E-2;-8,061894178E-1;-8,345946670E-1
1,921816349E2;5,746715069E-1;1,047633886E0;6,185010672E-1
1,922816349E2;5,765040517E-1;4,590652287E-1;1,355357289E0
1,923816349E2;5,378668308E-1;8,704829961E-2;2,396577120E0
1,924816349E2;6,168211699E-1;-5,797111392E-1;2,261728525E0
1,925816349E2;5,439754725E-1;3,842342496E-1;2,061670274E-1
1,926816349E2;-3,210096955E-1;3,536909819E-1;-1,203404546E0
1,927816349E2;-5,219843388E-1;6,038402915E-1;-1,870011210E0
1,928816349E2;-6,495024562E-1;-3,405573592E-2;-1,676672339E0
1,929816349E2;-7,787004709E-1;-1,400408626E0;-1,346194267E0
1,930816349E2;3,000875413E-1;6,352998614E-1;7,287622094E-1
1,931816349E2;5,763513446E-1;9,334021211E-1;1,513113260E0
1,932816349E2;4,025602043E-1;-6,352998316E-2;2,848922729E0
1,933816349E2;5,345070735E-2;-1,515098572E0;1,973552942E0
1,934816349E2;7,941248268E-2;-8,371908069E-1;-2,160935849E-1
1,935816349E2;2,825251818E-1;2,444988191E-1;-9,909761548E-1
1,936816349E2;-6,925684810E-1;-1,595885456E-1;-2,017993450E0
1,937816349E2;-2,267837226E-1;-5,039638281E-2;-2,273029566E0
1,938816349E2;-6,459899992E-2;-5,426010489E-1;-1,120937705E0
1,939816349E2;4,805982411E-1;8,315402865E-1;-1,886046380E-1
1,940816349E2;5,919284225E-1;1,176831841E0;1,804190516E0
1,941816349E2;4,812090993E-1;4,699080884E-1;2,421927929E0
1,942816349E2;3,933972120E-1;-4,839579761E-1;1,614516854E0
1,943816349E2;5,016731024E-1;-1,505782902E-1;3,672827184E-1
1,944816349E2;-4,260785133E-2;3,187189400E-1;-1,547779799E0
1,945816349E2;-4,240931869E-1;5,044219494E-1;-1,857030392E0
1,946816349E2;-1,107651353E0;-6,323982477E-1;-1,740965962E0
1,947816349E2;-1,069472313E0;-7,875580192E-1;-1,340543747E0
1,948816349E2;8,933904022E-2;6,863071322E-1;3,103195429E-1
1,949816349E2;4,028656185E-1;1,133154988E0;1,431715369E0
1,950816349E2;3,086396754E-1;2,703078650E-2;2,886032820E0
1,951816349E2;3,558290005E-1;-8,804095387E-1;2,382374525E0
1,952816349E2;-3,604105115E-2;-4,734205604E-1;2,519819140E-2
1,953816349E2;-1,049161032E-1;2,015855312E-1;-6,308710575E-1
1,954816349E2;-4,356996417E-1;4,844161272E-1;-1,494939923E0
1,955816349E2;-9,372199774E-1;-4,205807149E-1;-1,580002904E0
1,956816349E2;-1,106124282E0;-8,029823899E-1;-1,232878804E0
1,957816349E2;4,856378585E-2;1,808161139E-1;-3,124575615E-1
1,958816349E2;4,109596014E-1;6,728680730E-1;5,549710989E-1
1,959816349E2;6,276640296E-1;3,712533414E-1;2,187813759E0
1,960816349E2;5,995642543E-1;1,609629989E-1;2,456289053E0
1,961816349E2;4,660901725E-1;-2,484694421E-1;1,198823094E0
1,962816349E2;1,270599663E-1;-1,082758680E-1;7,681630552E-2
1,963816349E2;-3,678936064E-1;3,854559660E-1;-8,040513992E-1
1,964816349E2;-4,251621962E-1;2,270891517E-1;-9,642508030E-1
1,965816349E2;-4,845688641E-1;3,008511364E-1;-1,623221636E0
1,966816349E2;-6,644686460E-1;-2,961169183E-1;-1,549001575E0
1,967816349E2;-4,560109079E-1;-8,827002645E-1;-1,005789638E0
1,968816349E2;-2,643519342E-1;-4,295909703E-1;-5,103778839E-1
1,969816349E2;6,530149579E-1;8,684976697E-1;1,573283434E0
1,970816349E2;4,715879560E-1;4,367686510E-1;2,266921043E0
1,971816349E2;3,408628106E-1;-4,714352489E-1;2,050521851E0
1,972816349E2;2,945897579E-1;-5,729916096E-1;1,012967348E0
1,973816349E2;-1,038470939E-1;3,040581644E-1;-4,155410826E-1
1,974816349E2;-4,033237696E-1;-2,703078650E-2;-8,158105612E-1
1,975816349E2;-5,850561857E-1;2,652682364E-1;-1,661400795E0
1,976816349E2;-5,624541640E-1;2,474004216E-2;-1,966986060E0
1,977816349E2;-6,647741199E-1;-7,980954647E-1;-1,397201538E0
1,978816349E2;-1,188132912E-1;-8,750644326E-2;-7,347181439E-1
1,979816349E2;5,326744914E-1;9,208793640E-1;1,085507512E0
1,980816349E2;5,795583725E-1;2,477058619E-1;2,941163540E0
1,981816349E2;3,810271919E-1;-1,513418704E-1;2,381610870E0
1,982816349E2;1,518000066E-1;2,829833329E-1;-1,102611795E-1
1,983816349E2;-6,933320314E-2;-6,291912198E-1;-4,880813360E-1
1,984816349E2;2,580905706E-2;-3,688098788E-1;-1,643991113E0
1,985816349E2;-1,217148975E-1;-8,819366693E-1;-1,574505210E0
1,986816349E2;-1,019381404E0;-5,925392732E-2;-1,488067746E0
1,987816349E2;-6,858489513E-1;-6,791294217E-1;-1,349554062E0
1,988816349E2;3,103195429E-1;3,900374472E-1;9,118691087E-1
1,989816349E2;4,537201524E-1;5,992587805E-1;1,929875970E0
1,990816349E2;5,797111392E-1;2,622139156E-1;2,339766502E0
1,991816349E2;3,880521357E-1;-6,566801667E-2;2,063655615E0
1,992816349E2;8,689557761E-2;-7,144069076E-1;-5,418374538E-1
1,993816349E2;4,717406929E-1;-4,137084782E-1;-9,862419367E-1
1,994816349E2;-1,400408596E-1;-5,885686874E-1;-1,414305806E0
1,995816349E2;-6,340781450E-1;-1,311833113E-1;-1,480584621E0
1,996816349E2;-6,876815557E-1;-7,603744864E-1;-1,427133918E0
1,997816349E2;-9,896016866E-2;3,332269788E-1;-1,048550248E0
1,998816349E2;6,734789163E-2;4,491386712E-1;1,438587666E0
1,999816349E2;5,262604356E-1;9,888381362E-1;2,617862940E0
2,000816349E2;6,520986557E-2;3,171917796E-1;2,174985647E0
2,001816349E2;-2,254092693E-1;-2,499966025E-1;3,443752825E-1
2,002816349E2;1,339322031E-1;5,803219974E-2;-1,043663263E0
2,003816349E2;-8,704829961E-3;-7,785477638E-1;-1,377348423E0
2,004816349E2;-8,535314798E-1;-5,149593949E-1;-1,832137585E0
2,005816349E2;3,150537610E-1;1,075886369E0;-1,025948167E0
2,006816349E2;5,343543887E-1;7,872526050E-1;-1,771509275E-2
2,007816349E2;4,108068720E-2;4,941899776E-1;2,413528681E0
2,008816349E2;2,212859392E-1;6,531676650E-1;2,574644327E0
2,009816349E2;7,040221989E-2;-3,054326214E-2;5,027421117E-1
2,010816349E2;-1,824959964E-1;-4,327980280E-1;-8,153523803E-1
