"Time (s)";"Acceleration x (m/s^2)";"Acceleration y (m/s^2)";"Acceleration z (m/s^2)"
1,175458330E-1;-3,472583771E0;1,264008522E0;1,132104206E1
2,175458330E-1;-3,765704632E0;3,250649452E0;5,590231895E0
3,175458330E-1;-8,063812256E-1;1,529013634E0;8,763114929E0
4,175458330E-1;-3,367897868E-1;1,601396561E0;7,557730198E0
5,175458330E-1;-5,028516769E0;9,140582085E0;9,847063065E0
6,175458330E-1;7,479963779E0;-3,406183004E0;2,308475733E0
7,175458330E-1;6,257231236E0;-4,406980991E0;9,337990284E-1
8,175458330E-1;1,413440323E1;-8,407780647E0;6,762116909E0
9,175458330E-1;2,136910248E1;-5,059623718E0;9,868598938E0
1,017545833E0;1,161894894E1;-3,044866800E0;8,793623447E-1
1,117545833E0;3,461217880E0;-6,161518097E0;1,591227055E0
1,217545833E0;5,932405472E0;2,213959217E0;-6,382854581E-1
1,317545833E0;3,646661758E0;-6,869195461E0;5,789434433E0
1,417545833E0;1,132283688E1;-6,408577442E0;7,305287361E0
1,517545833E0;8,257631302E0;-8,507680893E0;-2,398804724E-1
1,617545833E0;4,737788677E0;-7,843672752E0;2,493321180E0
1,717545833E0;2,063211441E0;-7,173084259E0;2,095514536E0
1,817545833E0;4,875974178E0;-8,749954224E0;2,745763958E-1
1,917545833E0;-1,298106313E-1;-5,043471813E0;2,620140910E-1
2,017545833E0;-1,489532143E-1;-4,213162422E0;2,346760750E0
2,117545833E0;-1,719243050E0;-8,746364594E0;5,157729149E0
2,217545833E0;-2,314457655E0;-1,051107121E1;1,720439434E0
2,317545833E0;-4,513461590E0;-8,802596092E0;5,072783947E0
2,417545833E0;-1,760519266E0;-1,033938694E1;1,235892892E0
2,517545833E0;3,840480447E-1;-1,068275642E1;-3,593421459E0
2,617545833E0;-8,674580574E0;-1,272503090E1;-3,857828379E0
2,717545833E0;-5,359922886E0;-9,818349838E0;-4,798207760E0
2,817545833E0;-3,881756544E0;-3,038286448E0;-6,824330330E0
2,917545833E0;-4,931607246E0;-9,535398483E-1;-4,622334957E0
3,017545833E0;-6,431907177E0;3,619144261E-1;-6,349354744E0
3,117545833E0;-4,150949001E0;-3,074777126E-1;-6,337390900E0
3,217545833E0;-5,851049423E0;-2,602792740E0;-7,762914658E0
3,317545833E0;-5,185246468E0;-5,017749310E0;-8,806783676E0
3,417545833E0;-4,106681824E0;-5,459823132E0;-9,223134995E0
3,517545833E0;-5,538786411E0;-5,352744102E0;-8,355736732E0
3,617545833E0;-7,503293514E0;-4,691727161E0;-5,458028316E0
3,717545833E0;-1,045065284E0;-4,922036171E0;-8,400003433E0
3,817545833E0;-5,491527915E-1;-6,802794933E0;-7,600800991E0
3,917545833E0;-1,225125194E0;-7,085147858E0;-6,489933014E0
4,017545833E0;-7,728816867E-1;-8,477770805E0;-6,294320107E0
4,117545833E0;-1,167099237E0;-8,112865448E0;-6,940382004E0
4,217545833E0;-1,141974568E0;-6,385845661E0;-7,792226791E0
4,317545833E0;-2,830709219E0;-6,492326260E0;-7,707281590E0
4,417545833E0;-2,826521635E0;-6,161518097E0;-8,076375008E0
4,517545833E0;-2,344966173E0;-5,297709465E0;-7,822735310E0
4,617545833E0;-3,750749588E0;-5,227719307E0;-7,475776196E0
4,717545833E0;-1,127617717E0;-2,290529490E0;-9,260822296E0
4,817545833E0;6,460621208E-2;-7,435696125E-1;-8,757730484E0
4,917545833E0;2,501097918E0;-6,381658077E0;-1,408355618E1
5,017545833E0;-7,776673436E-1;-4,173082829E0;-6,406782627E0
5,117545833E0;6,394818425E-1;-2,169692039E0;-4,777868748E0
5,217545833E0;2,597409010E0;-1,119302654E1;-1,342074394E1
5,317545833E0;3,189632654E0;-3,443271875E0;-8,109275818E0
5,417545833E0;3,855435371E0;-5,749952793E0;-7,710272789E0
5,517545833E0;4,311866283E0;-6,340381622E0;-6,762714863E0
5,617545833E0;3,888336942E-2;-7,240681171E0;-6,148357868E0
5,717545833E0;2,273181528E-1;-8,765507698E0;-7,347161770E0
5,817545833E0;3,777668715E0;-1,084008503E1;-5,965905190E0
5,917545833E0;2,404786825E0;-1,000738239E1;-3,758526087E0
6,017545833E0;2,085943222E0;-8,300702095E0;-7,147361279E0
6,117545833E0;4,559523582E0;-6,457031727E0;-9,625128746E0
6,217545833E0;2,775076151E0;-2,444268227E0;-6,879364967E0
6,317545833E0;3,388236761E0;-6,006583214E0;-8,324629784E0
6,417545833E0;-2,475374937E0;-2,283949137E0;-3,433102369E0
6,517545833E0;1,040877819E0;5,688936114E-1;-8,110472679E0
6,617545833E0;1,201196909E0;-2,449054003E0;-8,089534760E0
6,717545833E0;4,262215137E0;-5,594419479E0;-6,497709751E0
6,817545833E0;1,165902853E0;-7,833503246E0;-3,783052683E0
6,917545833E0;2,635095835E0;-1,083649540E1;-7,062416077E0
7,017545833E0;1,278365493E0;-1,002652550E1;-5,700900078E0
7,117545833E0;3,162713289E0;-9,227920532E0;-5,110470772E0
7,217545833E0;3,495913982E0;-6,906882763E0;-7,184450150E0
7,317545833E0;2,923431158E0;-6,070590973E0;-5,791228771E0
7,417545833E0;1,843669891E0;-6,043073654E0;-6,716054916E0
7,517545833E0;2,233700037E0;-1,161715388E0;-6,625127792E0
7,617545833E0;7,124629617E-1;-2,995813847E0;-5,373083115E0
7,717545833E0;3,734597921E0;-5,723033428E0;-5,354538918E0
7,817545833E0;2,823530674E0;-7,652844906E0;-5,933003902E0
7,917545833E0;1,664208174E0;-9,122636795E0;-6,737590313E0
8,017545833E0;1,683948994E0;-9,433703423E0;-6,325426579E0
8,117545833E0;1,558923960E0;-9,013762474E0;-5,528616905E0
8,217545833E0;1,673181176E0;-6,891927242E0;-4,414159775E0
8,317545833E0;2,861815929E0;-8,739186287E0;-5,279164791E0
8,417545833E0;1,263410330E0;-7,349554539E0;-4,936991215E0
8,517545833E0;2,096710920E0;-6,504290104E0;-5,334199905E0
8,617545833E0;3,798007727E0;-5,878567219E0;-7,666603565E0
8,717545833E0;3,939782381E0;-5,460421085E0;-9,828518867E0
8,817545833E0;8,189435601E-1;-3,471985579E0;-7,383054256E0
8,917545833E0;1,095912814E0;-4,267001152E0;-7,060621262E0
9,017545833E0;3,024527788E0;-3,235694408E0;-8,998807907E0
9,117545833E0;1,335195065E0;-2,975475073E0;-7,959724426E0
9,217545833E0;1,950150490E0;-3,696911097E0;-9,367900848E0
9,317545833E0;2,087737799E0;-4,467400074E0;-9,198010445E0
9,417545833E0;1,403988719E0;-1,378864050E0;-7,162914753E0
9,517545833E0;2,944368362E0;-2,371287346E0;-7,840681553E0
9,617545833E0;4,594219327E-1;-3,571287870E0;-7,477570534E0
9,717545833E0;1,265205026E0;-7,030711174E0;-7,332805157E0
9,817545833E0;1,064806104E0;-7,786843300E0;-6,750751019E0
9,917545833E0;3,930211067E-1;-9,204590797E0;-7,657032490E0
1,001754583E1;-7,298108935E-2;-9,172286987E0;-5,510670662E0
1,011754583E1;-1,387238979E0;-9,270991325E0;-5,039284706E0
1,021754583E1;-1,884945989E0;-8,620143890E0;-4,142574310E0
1,031754583E1;-1,346560955E0;-9,452247620E0;-5,531009674E0
1,041754583E1;-1,323230863E0;-8,922237396E0;-4,715655327E0
1,051754583E1;-1,892722726E0;-8,429315567E0;-3,866203070E0
1,061754583E1;-1,323829174E0;-8,371290207E0;-5,310271740E0
1,071754583E1;-4,845465720E-1;-8,392825127E0;-4,805386066E0
1,081754583E1;-1,855633974E0;-9,437292099E0;-4,856233597E0
1,091754583E1;-2,501696110E0;-8,962317467E0;-5,105087280E0
1,101754583E1;-3,655036688E-1;-7,899903774E0;-5,156532764E0
1,111754583E1;-6,358926296E-1;-7,411767960E0;-4,885545731E0
1,121754583E1;-3,846462369E-1;-8,233702660E0;-6,316453457E0
1,131754583E1;-2,793620527E-1;-7,755138397E0;-6,619743824E0
1,141754583E1;-2,524427772E-1;-7,058826923E0;-5,002195835E0
1,151754583E1;7,118647546E-2;-7,101897717E0;-5,370690346E0
1,161754583E1;1,968096644E-1;-7,155138016E0;-4,978865623E0
1,171754583E1;-2,626122832E-1;-9,355937004E0;-7,731808186E0
1,181754583E1;-2,356930375E-1;-7,458428383E0;-6,659225464E0
1,191754583E1;-8,721838593E-1;-6,917650223E0;-5,833103180E0
1,201754583E1;7,088736892E-1;-7,868198872E0;-5,890531063E0
1,211754583E1;-4,671986103E-1;-6,792026997E0;-7,717451096E0
1,221754583E1;-2,895315289E-1;-1,021615601E1;-7,943572998E0
1,231754583E1;1,490130305E0;-5,139782906E0;-6,364908218E-1
1,241754583E1;1,634896040E0;-7,431509018E0;-4,111467361E0
1,251754583E1;1,477568030E0;-9,636494637E0;-7,896913052E0
1,261754583E1;-1,700100541E0;-8,672187805E0;-4,725824833E0
1,271754583E1;-7,914260626E-1;-8,103293419E0;-6,612565517E0
1,281754583E1;2,620140910E-1;-7,719245911E0;-5,182853699E0
1,291754583E1;-8,063812256E-1;-6,775277138E0;-4,820939541E0
1,301754583E1;-1,309472203E0;-6,691528320E0;-6,550352097E0
1,311754583E1;4,480560422E-1;-5,829514027E0;-6,604788780E0
1,321754583E1;-1,936391711E0;-6,873383045E0;-5,095515728E0
1,331754583E1;-4,152145386E0;-9,700503349E0;-4,569094658E0
1,341754583E1;8,973084688E-1;-7,436294556E0;-7,058826923E0
1,351754583E1;-1,243669510E0;-7,783253670E0;-4,831109047E0
1,361754583E1;-2,214557409E0;-9,766305923E0;-4,682754040E0
1,371754583E1;-2,793620527E-1;-8,362317085E0;-6,436094761E0
1,381754583E1;6,496513486E-1;-7,115656376E0;-6,915855408E0
1,391754583E1;1,094716340E-1;-5,359922886E0;-6,658627033E0
1,401754583E1;-1,333998591E-1;-5,273182869E0;-6,476772785E0
1,411754583E1;8,482556343E-1;-4,653441906E0;-6,619743824E0
1,421754583E1;2,117648125E0;-7,025925636E0;-8,715856552E0
1,431754583E1;-1,289133191E0;-4,392624378E0;-4,996213913E0
1,441754583E1;-1,204786181E0;-2,967698336E0;-5,154737949E0
1,451754583E1;2,897109985E0;-9,146564484E0;-3,286541939E0
1,461754583E1;-6,113662124E-1;-9,255437851E0;-2,337189436E0
1,471754583E1;-3,507279873E0;-1,055713367E1;-4,476373196E0
1,481754583E1;-1,992623091E0;-8,675776482E0;-4,911866665E0
1,491754583E1;-4,954339504E0;-1,354337597E1;-4,380660057E0
1,501754583E1;-1,747358680E0;-8,922237396E0;-3,019742250E0
1,511754583E1;1,933400750E0;-1,143051338E1;-7,805387497E0
1,521754583E1;1,625923038E0;-3,309273720E0;-8,098507881E0
1,531754583E1;4,983053207E-1;4,671986103E-1;-4,837090969E0
1,541754583E1;4,600201607E0;-2,383251429E0;-7,907680511E0
1,551754583E1;-2,955136001E-1;3,798605800E-1;-1,982453585E0
1,561754583E1;2,029113531E0;-8,356334686E0;-7,182057381E0
1,571754583E1;5,428118229E0;-4,350151539E0;-8,035696983E0
1,581754583E1;4,138985157E0;-8,488538742E0;-8,490332603E0
1,591754583E1;1,252642632E0;-8,706285477E0;-4,680361271E0
1,601754583E1;3,973282099E0;-9,089735031E0;-4,913661480E0
1,611754583E1;5,018945694E0;-6,925426960E0;-9,597013474E0
1,621754583E1;4,268795490E0;-4,326821327E0;-5,672784328E0
1,631754583E1;2,686541557E0;-6,546164513E0;-6,406782627E0
1,641754583E1;-1,274776220E0;-3,535395384E0;-1,511665702E0
1,651754583E1;5,510072231E0;-2,197209358E0;-9,195617676E0
1,661754583E1;1,973480463E0;-1,920838356E0;-5,524429321E0
1,671754583E1;3,020340443E0;-9,674779892E0;-6,099305153E0
1,681754583E1;2,659024239E0;-1,357029533E1;-6,910471916E0
1,691754583E1;3,961916208E0;-8,694919586E0;-7,089335442E0
1,701754583E1;2,721835852E0;-1,199581814E1;-3,648456335E0
1,711754583E1;3,294318676E0;-7,033702374E0;-7,505088329E0
1,721754583E1;4,013959885E0;-4,721039295E0;-7,209574699E0
1,731754583E1;3,020938635E0;-2,494517565E0;-7,990232944E0
1,741754583E1;1,844866276E0;4,127619043E-2;-6,644868374E0
1,751754583E1;4,847858906E0;-4,761118889E0;-6,819544315E0
1,761754583E1;2,779263496E0;-8,008178711E0;-7,624729156E0
1,771754583E1;1,701895118E0;-8,254041672E0;-3,741776466E0
1,781754583E1;4,340580463E0;-1,025623608E1;-9,899106979E0
1,791754583E1;2,578864574E0;-1,028554821E1;-5,986842155E0
1,801754583E1;9,092726111E-1;-8,350951195E0;-9,894321442E0
1,811754583E1;1,347159147E0;-3,805186272E0;-4,226323128E0
1,821754583E1;1,649253011E0;-6,638886452E0;-2,204387903E0
1,831754583E1;1,945364833E0;-6,470192432E0;-3,725026608E0
1,841754583E1;3,288336515E0;-4,334000111E0;-5,609374523E0
1,851754583E1;1,960319996E0;-4,151547432E0;-7,795815945E0
1,861754583E1;2,119442701E0;-9,437292099E0;-6,758527756E0
1,871754583E1;9,206385016E-1;-1,102014446E1;-9,095717430E0
1,881754583E1;-3,649054468E-2;-8,712266922E0;-5,241477966E0
1,891754583E1;5,333601475E0;-7,335795879E0;-5,673980713E0
1,901754583E1;3,726222992E0;-7,977072716E0;-6,614359856E0
1,911754583E1;2,889333248E0;-7,435098171E0;-6,748358250E0
1,921754583E1;1,154536963E0;-3,644867182E0;-6,028118610E0
1,931754583E1;2,341975212E0;-2,685345173E0;-6,502495766E0
1,941754583E1;2,084746838E0;-8,129615188E-1;-8,668598175E0
1,951754583E1;2,046461582E0;-4,129413605E0;-6,472585201E0
1,961754583E1;2,612364054E0;-4,588237286E0;-3,203391314E0
1,971754583E1;3,726821184E0;-1,110628605E1;-9,650852203E0
1,981754583E1;3,653241873E0;-1,163031483E1;-7,092326164E0
1,991754583E1;-7,465606928E-1;-4,713262558E0;-3,194418252E-1
2,001754583E1;4,424329281E0;-7,225726128E0;-8,630312920E0
2,011754583E1;5,630311489E0;-9,195018768E0;-7,134799004E0
2,021754583E1;1,231705427E0;-2,895315409E0;-5,108676434E0
2,031754583E1;5,497509837E-1;-3,942773581E0;-3,665206194E0
2,041754583E1;2,757728100E0;-5,276772022E0;-3,502494097E0
2,051754583E1;2,289931297E0;-4,362115860E0;-3,891926050E0
2,061754583E1;3,994219303E0;-1,029751205E1;-6,314659119E0
2,071754583E1;2,747558594E0;-9,067003250E0;-5,274977684E0
2,081754583E1;3,080759048E-1;-8,386843681E0;-1,502094388E0
2,091754583E1;4,473381996E0;-1,173440266E1;-5,230710506E0
2,101754583E1;1,439880967E0;-6,862017155E0;-3,101696253E0
2,111754583E1;1,196411345E-2;-5,007579803E0;-3,521636724E0
2,121754583E1;2,500499725E0;-1,655235052E0;-8,389236450E0
2,131754583E1;6,759724021E-2;5,706881881E-1;-6,357131481E0
2,141754583E1;2,300698996E0;-3,999004841E0;-7,744370461E0
2,151754583E1;2,353341103E0;-9,588638306E0;-4,010969162E0
2,161754583E1;4,468596458E0;-1,310668564E1;-9,740582466E0
2,171754583E1;1,131206870E0;-9,415159225E0;-3,334996462E0
2,181754583E1;4,559523582E0;-8,014161110E0;-4,953142643E0
2,191754583E1;2,000399828E0;-6,651448727E0;-4,322035789E0
2,201754583E1;3,224926710E0;-2,930609465E0;-6,933801651E0
2,211754583E1;1,878365725E-1;1,779661894E0;-5,659623623E0
2,221754583E1;4,578666210E0;-5,070989609E0;-6,957131863E0
2,231754583E1;1,282552958E0;-5,227120876E0;-6,748956203E0
2,241754583E1;3,390629768E0;-1,133659554E1;-8,550751686E0
2,251754583E1;3,677170277E0;-1,078564835E1;-5,093721390E0
2,261754583E1;4,067798555E-1;-7,480561733E0;-3,966701746E0
2,271754583E1;5,721837044E0;-1,286022568E1;-9,902098656E0
2,281754583E1;1,670190215E0;-4,219742775E0;-6,065207005E0
2,291754583E1;4,135395527E0;-5,678766251E0;-1,011206818E1
2,301754583E1;3,011367321E0;-1,941775560E0;-5,813961029E0
2,311754583E1;3,715455294E0;-3,698107481E0;-5,765506268E0
2,321754583E1;8,506484628E-1;-1,045962620E1;-4,878965378E0
2,331754583E1;4,237090588E0;-1,297328663E1;-8,995218277E0
2,341754583E1;3,725624800E0;-7,842476368E0;-2,797209740E0
2,351754583E1;2,407179594E0;-9,087940216E0;-2,765504837E0
2,361754583E1;3,026322365E0;-7,082156658E0;-6,157330990E0
2,371754583E1;2,506481647E0;-5,148158073E0;-6,952346325E0
2,381754583E1;4,007977992E-2;-1,847259045E0;-3,127419233E0
2,391754583E1;5,648257732E0;-2,444866419E0;-5,286941528E0
2,401754583E1;3,546761274E0;-1,081376362E1;-5,475974560E0
2,411754583E1;3,150151014E0;-6,403791428E0;-5,414957523E0
2,421754583E1;4,155734539E0;-1,532124329E1;-8,790632248E0
2,431754583E1;2,027318954E0;-7,272984505E0;-4,434498787E0
2,441754583E1;4,724628448E0;-7,529016495E0;-7,372884750E0
2,451754583E1;5,340780258E0;-5,692524910E0;-8,867800713E0
2,461754583E1;1,469791293E0;-4,664209366E0;-5,599802971E0
2,471754583E1;6,041877270E-1;1,220339537E-1;-3,274577856E0
2,481754583E1;3,361317635E0;-6,029912949E0;-6,826723099E0
2,491754583E1;4,666602135E0;-4,002593994E0;-4,433301926E0
2,501754583E1;1,214955688E0;-1,084905815E1;-8,523832321E0
2,511754583E1;2,137987137E0;-7,903493404E0;-5,254638672E0
2,521754583E1;4,383651257E0;-1,018983555E1;-4,639084816E0
2,531754583E1;2,896511793E0;-5,742774487E0;-5,866004944E0
2,541754583E1;3,220141172E0;-6,081358910E0;-7,518846989E0
2,551754583E1;1,253240824E0;-3,016751051E0;-2,929413080E0
2,561754583E1;4,438685894E0;-3,077768087E0;-5,970092297E0
2,571754583E1;3,313461065E0;-3,055634499E0;-6,125626087E0
2,581754583E1;4,203591347E0;-1,171705437E1;-7,069594383E0
2,591754583E1;8,315058798E-2;-8,185846329E0;-5,684150219E0
2,601754583E1;1,100698471E0;-7,785048485E0;-2,347358942E0
2,611754583E1;5,405984402E0;-1,082034397E1;-7,386045456E0
2,621754583E1;2,096112728E0;-4,351347923E0;-4,474578381E0
2,631754583E1;1,615753531E0;-9,373882413E-1;-7,357929707E0
2,641754583E1;2,690729141E0;-1,371685624E0;-6,149554253E0
2,651754583E1;2,593221426E0;-1,700698733E0;-6,397211552E0
2,661754583E1;5,862415314E0;-1,393938828E1;-7,432705402E0
2,671754583E1;-1,811366796E0;-8,958727837E0;-3,684348583E0
2,681754583E1;7,441678643E-1;-9,336195946E0;-8,753543854E0
2,691754583E1;3,940979004E0;-1,160339546E1;-5,770291805E0
2,701754583E1;5,110470772E0;-7,267600536E0;-6,601199627E0
2,711754583E1;1,305284739E0;-5,202594757E0;-7,054639339E0
2,721754583E1;9,050851464E-1;-5,138586521E0;-3,909872293E0
2,731754583E1;3,318845034E0;-7,848458290E-1;-6,129215240E0
2,741754583E1;1,562513232E0;-7,629515171E0;-9,875179291E0
2,751754583E1;2,480160713E0;-9,211769104E0;-7,768298626E0
2,761754583E1;2,718246460E0;-1,416431332E1;-1,014437199E1
2,771754583E1;4,115654945E0;-5,956932068E0;-5,880361795E-1
2,781754583E1;6,400800705E0;-1,088016415E1;-1,144008541E1
2,791754583E1;2,871387243E0;-2,743371248E0;-6,923632145E0
2,801754583E1;2,354537487E0;-3,089732170E0;-4,006781578E0
2,811754583E1;1,788036704E0;-1,639083475E-1;-6,587440968E0
2,821754583E1;3,777668715E0;-5,470590591E0;-7,264609337E0
2,831754583E1;4,928616524E0;-3,005983353E0;-6,784250259E0
2,841754583E1;2,196611166E0;-1,376889992E1;-7,655237675E0
2,851754583E1;-2,776272535E0;-2,373081923E0;-2,216351986E0
2,861754583E1;9,825528145E0;-1,230329609E1;-1,085922718E1
2,871754583E1;4,134199142E0;-6,683153629E0;-9,812367439E0
2,881754583E1;9,002995491E-1;-2,280958176E0;-5,894120216E0
2,891754583E1;1,040877819E0;-1,175474167E0;-7,351349354E0
2,901754583E1;3,946960926E0;-1,186241865E0;-6,989434719E0
2,911754583E1;3,625126362E0;-1,121635628E1;-4,585844517E0
2,921754583E1;3,900300980E0;-1,113858986E1;-6,722635269E0
2,931754583E1;5,003990173E0;-9,013164520E0;-5,829514027E0
2,941754583E1;3,651447296E0;-8,787641525E0;-4,241278172E0
2,951754583E1;6,731009960E0;-7,362715244E0;-9,810572624E0
2,961754583E1;2,634497643E0;-4,188635826E0;-5,374877930E0
2,971754583E1;2,059622049E0;-5,777470112E0;-3,049652576E0
2,981754583E1;1,934597135E0;-4,330410957E0;-5,626124382E0
2,991754583E1;3,785445452E0;-7,055835724E0;-5,341976643E0
3,001754583E1;1,202991605E0;-1,389512062E1;-8,478966713E0
3,011754583E1;1,357328653E0;-1,141137123E1;-5,831906796E0
3,021754583E1;2,295315027E0;-2,493321180E0;-2,264806747E0
3,031754583E1;5,939583778E0;-6,226722717E0;-1,102672482E1
3,041754583E1;7,743772507E0;-4,890331268E0;-7,738388538E0
3,051754583E1;-2,657229662E0;-4,567898273E0;1,834098577E0
3,061754583E1;2,348555326E0;2,030309916E0;-2,454437733E0
3,071754583E1;4,448855400E0;-6,203392506E0;-1,181216908E1
3,081754583E1;1,028913736E0;-5,200799942E0;-4,024727821E0
3,091754583E1;1,223928809E0;-1,816212273E1;-1,192762280E1
3,101754583E1;5,522634506E0;-9,549755096E0;-6,315855503E0
3,111754583E1;5,544169903E0;-1,068814087E1;-6,269195557E0
3,121754583E1;2,330011129E0;-5,883950710E0;-2,319243431E0
3,131754583E1;5,130809784E0;-6,751348972E0;-1,079821014E1
3,141754583E1;-2,298904419E0;-5,120640397E-1;-3,824927092E0
3,151754583E1;3,827918053E0;3,216551781E0;-5,644070625E0
3,161754583E1;5,664409637E0;-9,240483284E0;-9,710074425E0
3,171754583E1;-9,170492887E-1;-4,284946918E0;-7,019943237E0
3,181754583E1;3,655036688E0;-1,620658684E1;-1,575314808E1
3,191754583E1;7,854440212E-1;-1,081555843E1;-2,913261652E0
3,201754583E1;4,454239368E0;-4,697110653E0;-3,183052301E0
3,211754583E1;4,856831551E0;-6,988238335E0;-1,230688477E1
3,221754583E1;-1,055234790E0;1,929811478E0;-2,440679073E-1
3,231754583E1;3,159722328E0;9,571290612E-1;-6,379863262E0
3,241754583E1;3,583850145E0;-1,045663452E1;-8,626125336E0
3,251754583E1;2,692523718E0;-1,156750298E1;-5,595017433E0
3,261754583E1;4,418945312E0;-1,193599796E1;-8,345566750E0
3,271754583E1;4,425525665E0;-8,728418350E0;-7,229315281E0
3,281754583E1;6,016752720E0;-1,056909752E1;-6,638288021E0
3,291754583E1;1,930409670E0;-6,543173313E0;-2,564507723E0
3,301754583E1;1,677368641E0;-3,693919897E0;-5,632704735E0
3,311754583E1;-2,641676188E0;3,150749207E0;-3,011367321E0
3,321754583E1;3,094517946E0;-7,237092018E0;-8,570492744E0
3,331754583E1;2,191227436E0;-6,090332031E0;-6,241079807E0
3,341754583E1;6,226124287E0;-1,251506042E1;-7,085147858E0
3,351754583E1;2,469991207E0;-7,665407181E0;-4,883152962E0
3,361754583E1;3,372683525E0;-1,087777138E1;-3,172284603E0
3,371754583E1;4,400999069E0;-9,596415520E0;-5,453242779E0
3,381754583E1;1,110269666E0;-5,299503803E0;-5,352744102E0
3,391754583E1;3,075973511E0;-3,241078377E0;-6,908079147E0
3,401754583E1;3,401995659E0;1,402194023E0;-7,118049145E0
3,411754583E1;5,187639713E0;-8,163712502E0;-4,619942188E0
3,421754583E1;5,175675392E0;-1,231406307E1;-5,158327579E0
3,431754583E1;5,921638012E0;-9,479166985E0;-5,891727448E0
3,441754583E1;2,961716175E0;-1,015035343E1;-7,636693478E0
3,451754583E1;3,923630953E0;-1,126600742E1;-8,097909927E0
3,461754583E1;2,070389748E0;-3,675375462E0;-5,586044312E0
3,471754583E1;6,218945980E0;-6,476772785E0;-1,035254669E1
3,481754583E1;8,362914920E-1;-3,288336515E0;-3,018545866E0
3,491754583E1;4,313661098E0;-6,520441920E-2;-5,394020557E0
3,501754583E1;4,714458942E0;-2,195055771E1;-1,279980659E1
3,511754583E1;4,667798996E0;-9,346963882E0;-6,014359951E0
3,521754583E1;3,613760471E0;-7,828717709E0;-6,108876228E0
3,531754583E1;5,309673309E0;-1,089631653E1;-7,486543655E0
3,541754583E1;4,451248169E0;-5,263611794E0;-5,035097122E0
3,551754583E1;3,780659735E-1;-2,863610506E0;-5,647659779E0
3,561754583E1;7,334001660E-1;-1,304088354E0;-2,352144718E0
3,571754583E1;2,359323025E0;-1,996810555E0;-6,204588890E0
3,581754583E1;1,515853167E0;-9,388837814E0;-5,596812248E0
3,591754583E1;2,532802820E0;-5,831308842E0;-7,231708050E0
3,601754583E1;4,977070987E-1;-1,490549088E1;-9,759725571E0
3,611754583E1;2,749951363E0;-7,015756130E0;-4,600201607E0
3,621754583E1;7,013363361E0;-1,011805058E1;-9,327820778E0
3,631754583E1;-2,168495417E0;-3,187838078E0;-1,737189293E0
3,641754583E1;7,657032460E-2;-6,945167780E-1;-3,093919754E0
3,651754583E1;6,156134605E0;-4,243670940E0;-5,291727066E0
3,661754583E1;3,099901676E0;-6,853642464E0;-4,639683247E0
3,671754583E1;4,046263218E0;-1,145803165E1;-7,281359196E0
3,681754583E1;7,127620220E0;-8,948558807E0;-7,540980339E0
3,691754583E1;3,326023519E-1;-5,374877930E0;-6,400800347E-1
3,701754583E1;3,820141315E0;-9,905089378E0;-9,971489906E0
3,711754583E1;3,014956474E0;-4,420739651E0;-3,196212769E0
3,721754583E1;3,769891977E0;-3,266202927E0;-6,871588230E0
3,731754583E1;-1,591227055E-1;1,430907965E0;-4,893322468E0
3,741754583E1;4,473979950E0;-7,482356548E0;-5,237290382E0
3,751754583E1;4,399802685E0;-8,971888542E0;-7,582256794E0
3,761754583E1;1,019940615E0;-8,477172852E0;-3,109472990E0
3,771754583E1;2,618346214E0;-9,495318413E0;-6,343971252E0
3,781754583E1;7,311867714E0;-1,301336575E1;-8,237890244E0
3,791754583E1;5,509474277E-1;-1,944766641E0;-2,129612207E0
3,801754583E1;7,779664516E0;-7,356134892E0;-1,360200024E1
3,811754583E1;1,738983870E0;4,234099865E0;-4,511667252E0
3,821754583E1;4,979464054E0;-6,576673031E0;-7,760521889E0
3,831754583E1;5,111667156E0;-7,325626373E0;-5,129613400E0
3,841754583E1;7,463811874E0;-1,007139015E1;-9,190832138E0
3,851754583E1;2,101496458E0;-7,137789726E0;-5,224130154E0
3,861754583E1;5,284548759E0;-7,615158081E0;-3,356531858E0
3,871754583E1;7,767700672E0;-9,105288506E0;-5,133202553E0
3,881754583E1;5,258227587E-1;-9,161520004E0;-1,720439434E0
3,891754583E1;3,408575773E0;-4,273581028E0;-2,987439156E0
3,901754583E1;4,741377831E0;-5,909673691E0;-9,253045082E0
3,911754583E1;3,473181963E0;-5,063212872E0;-7,051050186E0
3,921754583E1;7,181458950E0;-1,094776154E1;-7,203592777E0
3,931754583E1;5,285147190E0;-1,100219822E1;-6,220142365E0
3,941754583E1;3,577269793E0;-7,198806763E0;-4,639683247E0
3,951754583E1;5,709274769E0;-8,072785378E0;-1,007378292E1
3,961754583E1;2,999403238E0;-6,137589931E0;-7,810173035E0
3,971754583E1;-7,956135273E-2;-3,050848961E0;2,787638307E-1
3,981754583E1;3,455235958E0;-1,118046403E0;-6,755536556E0
3,991754583E1;2,359323025E0;-4,369892120E0;-4,657031059E0
4,001754583E1;1,628913999E0;-9,756733894E0;-5,939583778E0
4,011754583E1;2,979662418E0;-1,579203129E1;-8,218149185E0
4,021754583E1;3,842274904E0;-7,290930748E0;-4,118646145E0
4,031754583E1;7,533802032E0;-9,955338478E0;-5,708078384E0
4,041754583E1;4,761118889E0;-6,202794552E0;-3,466003656E0
4,051754583E1;3,211168051E0;-1,278963685E0;-8,015357971E0
4,061754583E1;9,002995491E-1;-1,010967612E0;-4,079164505E0
4,071754583E1;3,773481369E0;-4,493122578E0;-3,905086517E0
4,081754583E1;5,391627789E0;-7,282555580E0;-5,727818966E0
4,091754583E1;6,074778557E0;-9,125029564E0;-6,114260197E0
4,101754583E1;6,197410822E-1;-6,129813194E0;-1,531406522E0
4,111754583E1;2,869592667E0;-9,528220177E0;-3,033500910E0
4,121754583E1;4,269393921E0;-8,058428764E0;-7,280162811E0
4,131754583E1;3,562314749E0;-6,334399700E0;-8,126026154E0
4,141754583E1;1,046261668E0;1,074975610E0;-4,813760757E0
4,151754583E1;6,037091732E0;-1,920240164E0;-8,176873207E0
4,161754583E1;4,676173687E0;-6,402595043E0;-4,305884361E0
4,171754583E1;6,111268997E0;-1,198923779E1;-6,151348591E0
4,181754583E1;5,638088226E0;-1,082213879E1;-5,370690346E0
4,191754583E1;1,717448473E0;-9,179466248E0;-4,389633179E0
4,201754583E1;5,775675774E0;-9,586245537E0;-7,884350777E0
4,211754583E1;6,174678802E0;-7,243672371E0;-7,664809227E0
4,221754583E1;7,190431952E-1;-1,085743308E0;-5,191826820E0
4,231754583E1;1,961516380E0;-2,338984162E-1;-3,472583771E0
4,241754583E1;2,767299414E0;-5,770291805E0;-6,114858150E0
4,251754583E1;3,192025423E0;-1,026281643E1;-4,813760757E0
4,261754583E1;4,644468784E0;-1,223330593E1;-8,048856735E0
4,271754583E1;4,873581409E0;-6,646064758E0;-5,127220631E0
4,281754583E1;6,591030121E0;-1,070967579E1;-5,254040241E0
4,291754583E1;4,713860512E0;-6,528218269E0;-3,029911757E0
4,301754583E1;1,602592945E0;-4,124029636E0;-5,020142078E0
4,311754583E1;1,180259824E0;-7,902296782E-1;-4,902295589E0
4,321754583E1;4,427320004E0;-3,908675671E0;-6,092126369E0
4,331754583E1;3,487539053E0;-6,965506554E0;-3,211766243E0
4,341754583E1;5,866004944E0;-1,456810284E1;-8,745168686E0
4,351754583E1;6,221338749E0;-8,007580757E0;-4,795216560E0
4,361754583E1;2,280359983E0;-8,937790871E0;-3,689134359E0
4,371754583E1;3,687937975E0;-7,932805061E0;-6,739983082E0
4,381754583E1;2,311466694E0;-5,465207100E0;-3,999004841E0
4,391754583E1;1,231705427E0;-1,805982947E0;-3,265006542E0
4,401754583E1;2,334796667E0;-9,505487680E-1;-4,421936035E0
4,411754583E1;2,683550596E0;-1,763510346E0;-5,432305813E0
4,421754583E1;5,188237667E0;-1,495633793E1;-6,740581512E0
4,431754583E1;-1,237687469E0;-3,025724173E0;-2,600399971E0
4,441754583E1;4,039084435E0;-1,230329609E1;-1,283569908E1
4,451754583E1;2,784049034E0;-8,416155815E0;-4,944169998E0
4,461754583E1;3,182454109E0;-4,245465755E0;-6,126822472E0
4,471754583E1;2,779263496E0;-4,238286972E0;-7,745566845E0
4,481754583E1;7,543373108E-1;-1,712662816E0;-4,368097782E0
4,491754583E1;2,337189436E0;-7,668996453E-1;-6,568298340E0
4,501754583E1;2,566900492E0;-8,113463402E0;-5,800201893E0
4,511754583E1;4,868197441E0;-1,105663490E1;-7,901100159E0
4,521754583E1;5,757729530E0;-9,148957253E0;-5,234299660E0
4,531754583E1;2,837289333E0;-7,905886173E0;-3,795016766E0
4,541754583E1;5,330012321E0;-9,002396584E0;-7,193423271E0
4,551754583E1;5,916254044E0;-7,334001541E0;-7,578069210E0
4,561754583E1;1,280758262E0;-9,780662656E-1;-3,464209080E0
4,571754583E1;1,284347534E0;-9,254241586E-1;-3,851248026E0
4,581754583E1;5,753541946E0;-9,801599503E0;-7,344171047E0
4,591754583E1;6,238687038E0;-8,080561638E0;-7,891529083E0
4,601754583E1;6,658029079E0;-7,073781967E0;-6,424728870E0
4,611754583E1;2,236092806E0;-1,169731331E1;-7,554141045E0
4,621754583E1;3,920041800E0;-8,516056061E0;-3,020340443E0
4,631754583E1;6,393621922E0;-7,314260483E0;-9,290133476E0
4,641754583E1;3,060420275E0;-4,378865242E0;-6,670591354E0
4,651754583E1;8,344969153E-1;9,361918569E-1;-3,818944931E0
4,661754583E1;6,253642082E0;-3,531806231E0;-3,985844374E0
4,671754583E1;3,468396425E0;-1,062233829E1;-4,846662045E0
4,681754583E1;6,480361938E0;-1,010309505E1;-8,596215248E0
4,691754583E1;7,075576782E0;-1,189771271E1;-8,246863365E0
4,701754583E1;3,567698479E0;-1,125344467E1;-4,763511658E0
4,711754583E1;5,389235020E0;-9,428917885E0;-6,336194515E0
4,721754583E1;4,856233597E0;-4,805984497E0;-8,632107735E0
4,731754583E1;2,511865616E0;-8,135596663E-2;-3,656233072E0
4,741754583E1;3,579064369E0;-4,420739710E-1;-3,423531055E0
4,751754583E1;2,821736097E0;-9,363115311E0;-4,635495663E0
4,761754583E1;5,587240696E0;-1,104945660E1;-1,146760273E1
4,771754583E1;1,018385315E1;-1,920778465E1;-1,185703468E1
4,781754583E1;3,428914785E0;-5,268995285E0;-1,942373753E0
4,791754583E1;4,784449100E0;-1,265922832E1;-7,484150887E0
4,801754583E1;6,364908218E0;-7,305885792E0;-7,841877937E0
4,811754583E1;1,934597135E0;-1,549352646E0;-7,548757076E0
4,821754583E1;-4,654040039E-1;1,091127157E0;-3,434896946E0
4,831754583E1;3,932604074E0;-6,657430649E0;-6,052644730E0
4,841754583E1;4,515256405E0;-7,286743164E0;-4,631906509E0
4,851754583E1;5,971887112E0;-8,965308189E0;-6,946363926E0
4,861754583E1;7,292725086E0;-1,282971668E1;-9,658030510E0
4,871754583E1;2,795415163E0;-7,753942013E0;-2,304288149E0
4,881754583E1;4,319045067E0;-6,944569588E0;-6,229115486E0
4,891754583E1;4,361517429E0;-5,006382942E0;-7,651050568E0
4,901754583E1;1,395015597E0;-2,111666054E-1;-5,469394207E0
4,911754583E1;4,577469826E0;-1,987239242E0;-5,445466042E0
4,921754583E1;3,589233875E0;-8,808578491E0;-5,800201893E0
4,931754583E1;6,790232658E0;-1,223629665E1;-8,918647766E0
4,941754583E1;7,033702374E0;-1,315214920E1;-1,114756203E1
4,951754583E1;3,538386583E0;-7,824530125E0;-4,609174728E0
4,961754583E1;6,661019802E0;-8,842676163E0;-7,005586624E0
4,971754583E1;4,590032101E0;-5,428118229E0;-7,706683636E0
4,981754583E1;2,747558594E0;-2,278565407E0;-1,899901152E0
4,991754583E1;1,258026481E0;5,054838061E-1;-4,196412563E0
5,001754583E1;4,785047054E0;-9,059824944E0;-5,711069584E0
5,011754583E1;5,446662426E0;-9,850054741E0;-6,077171326E0
5,021754583E1;4,234697819E0;-2,342513466E1;-9,707681656E0
5,031754583E1;3,644867182E0;-5,771488190E0;2,545365095E0
5,041754583E1;1,433121300E1;-1,377548027E1;-1,451964760E1
5,051754583E1;3,330210924E0;-2,337189436E0;-6,254240036E0
5,061754583E1;1,057807064E1;-1,118465137E1;-1,549591923E1
5,071754583E1;4,701896608E-1;-4,767699242E-1;-5,709873199E0
5,081754583E1;4,049253941E0;2,085943222E0;-7,452445984E0
5,091754583E1;2,416152716E0;-9,010771751E0;-7,120441914E0
5,101754583E1;5,233701229E0;-9,025727272E0;-7,422535896E0
5,111754583E1;4,633102894E0;-7,935198307E0;-2,049452543E0
5,121754583E1;3,594617844E0;-1,194317627E1;-3,561716557E0
5,131754583E1;2,509472847E0;-7,660023689E0;-4,727021217E0
5,141754583E1;2,717050076E0;-3,433700502E-1;-9,017352104E0
5,151754583E1;6,162116528E0;-2,869592667E0;-1,012343407E1
5,161754583E1;-5,024927258E-1;1,340578914E0;6,879364848E-1
5,171754583E1;4,009772778E0;-3,964308977E0;-2,402393818E0
5,181754583E1;3,436691523E0;-1,512503147E1;-1,075932693E1
5,191754583E1;5,748756409E0;-9,678967476E0;-1,014496994E1
5,201754583E1;3,140579700E0;-8,160123825E0;-3,202194929E0
5,211754583E1;4,822733879E0;-9,190233231E0;-4,458426952E0
5,221754583E1;7,357929707E0;-6,702296257E0;-6,288936138E0
5,231754583E1;4,775475979E0;-4,604389191E0;-8,627920151E0
5,241754583E1;-1,119840980E0;1,304088384E-1;-2,565105915E0
5,251754583E1;4,214358807E0;-4,712664127E0;-4,942375183E0
5,261754583E1;4,829912663E0;-6,878168583E0;-6,579065800E0
5,271754583E1;5,853442192E0;-9,282357216E0;-5,200799942E0
5,281754583E1;5,117649555E0;-7,852047443E0;-4,469194412E0
5,291754583E1;4,077968121E0;-9,184849739E0;-3,984049797E0
5,301754583E1;4,198207378E0;-7,178467751E0;-6,438487530E0
5,311754583E1;3,777668715E0;-6,522236347E0;-6,765107632E0
5,321754583E1;3,079562664E0;-2,003988981E0;-4,228715897E0
5,331754583E1;5,247459888E0;-3,197409153E0;-1,959123492E0
5,341754583E1;4,679762840E0;-6,717849731E0;-4,558327198E0
5,351754583E1;5,828317642E0;-7,819146156E0;-5,177470207E0
5,361754583E1;3,427718401E0;-8,781061172E0;-9,930214286E-2
5,371754583E1;2,506481647E0;-5,248656273E0;-5,897111416E0
5,381754583E1;7,849056244E0;-1,192283726E1;-8,678768158E0
5,391754583E1;4,036691666E0;-5,927619934E0;-4,302295208E0
5,401754583E1;3,675375462E0;-2,324028969E0;-6,044867992E0
5,411754583E1;1,223928809E0;-1,094716311E0;-6,015556335E0
5,421754583E1;3,024527788E0;-3,823730469E0;-6,467799664E0
5,431754583E1;4,972883701E0;-8,452646255E0;-5,751747608E0
5,441754583E1;6,034100533E0;-1,258624744E1;-6,034698486E0
5,451754583E1;5,372485161E0;-1,410987663E1;-6,729813576E0
5,461754583E1;5,887540340E0;-8,711668968E0;-6,674778938E0
5,471754583E1;8,273782730E0;-8,307880402E0;-4,741377831E0
5,481754583E1;4,452444553E0;-8,740981102E0;-7,928617954E0
5,491754583E1;2,468794823E0;-3,172882795E0;-1,594816327E0
5,501754583E1;5,313860893E0;-1,538584948E0;-5,888138294E0
5,511754583E1;5,028516769E0;-3,910470486E0;-5,224130154E0
5,521754583E1;4,574478626E0;-1,411346626E1;-6,431907177E0
5,531754583E1;6,876374245E0;-9,963713646E0;-4,985445976E0
5,541754583E1;4,747360229E0;-8,111070633E0;-7,515855789E0
5,551754583E1;5,244469166E0;-9,232706070E0;-5,625525951E0
5,561754583E1;3,564707518E0;-6,428318024E0;-4,758127689E0
5,571754583E1;2,892922640E0;-3,672384501E0;-4,551746845E0
5,581754583E1;-3,708875179E-1;-6,640082598E-2;-3,086741209E0
5,591754583E1;2,827120066E0;-1,987837434E0;-5,332405090E0
5,601754583E1;3,165106058E0;-9,159127235E0;-3,705285788E0
5,611754583E1;4,311268330E0;-7,942376614E0;-7,840681553E0
5,621754583E1;6,517450809E0;-1,076411247E1;-7,203592777E0
5,631754583E1;4,365705013E0;-7,626523972E0;-3,579662561E0
5,641754583E1;5,452046394E0;-9,738189697E0;-7,467999458E0
5,651754583E1;2,675773859E0;-4,738387108E0;-4,298706055E0
5,661754583E1;4,012763500E0;-4,081557274E0;-4,122833252E0
5,671754583E1;7,232306600E-1;1,879562140E0;-4,735395908E0
5,681754583E1;3,678964853E0;-8,021339417E0;-3,973282099E0
5,691754583E1;5,032105923E0;-9,681958199E0;-5,757131100E0
5,701754583E1;5,196014404E0;-1,029870892E1;-6,371488571E0
5,711754583E1;4,508676052E0;-8,770891190E0;-6,853642464E0
5,721754583E1;4,199403763E0;-8,338388443E0;-3,992424488E0
5,731754583E1;5,413163185E0;-7,796414375E0;-7,537391186E0
5,741754583E1;2,696711063E0;-2,041675806E0;-4,247260094E0
5,751754583E1;1,434497118E0;-1,125224829E0;-4,630111694E0
5,761754583E1;2,843869686E0;-3,863212109E0;-4,799404144E0
5,771754583E1;5,586044312E0;-1,172722340E1;-3,485744476E0
5,781754583E1;7,448258877E0;-1,085324574E1;-6,369095802E0
5,791754583E1;5,518447399E0;-1,077069283E1;-8,224729538E0
5,801754583E1;5,072185993E0;-1,098604679E1;-7,200003147E0
5,811754583E1;4,972285271E0;-8,642276764E0;-7,189833641E0
5,821754583E1;5,683551788E0;-5,507081509E0;-7,016354084E0
5,831754583E1;2,520838737E0;-2,408375978E0;-5,100899696E0
5,841754583E1;3,008974493E-1;-1,054636598E0;-5,827121258E0
5,851754583E1;4,204189301E0;-3,976273060E0;-4,238286972E0
5,861754583E1;4,474578381E0;-1,850848389E1;-1,006122112E1
5,871754583E1;3,996612072E0;-6,625127792E0;-4,356731892E0
5,881754583E1;1,016829967E1;-1,122772217E1;-5,575874805E0
5,891754583E1;4,175475597E0;-9,991230965E0;-5,725426197E0
5,901754583E1;-1,663011760E-1;-4,433900356E0;-1,866401672E0
5,911754583E1;4,877170563E0;-7,194021225E0;-6,540182590E0
5,921754583E1;1,551147223E0;1,281356573E0;-5,762515068E0
5,931754583E1;2,796013355E0;-1,698904037E0;-7,531409264E0
5,941754583E1;1,971087694E0;-8,182256699E0;-2,459223509E0
5,951754583E1;8,469395638E0;-1,255155087E1;-7,478168964E0
5,961754583E1;4,673780918E0;-9,786644936E0;-5,507081509E0
5,971754583E1;3,074178934E0;-7,825128078E0;-3,222533941E0
5,981754583E1;1,100459099E1;-1,167637634E1;-8,122436523E0
5,991754583E1;4,259822369E0;-6,055037498E0;-6,060421467E0
6,001754583E1;2,012962103E0;-2,343171597E0;-2,633899450E0
6,011754583E1;2,011765718E0;-1,406979680E0;-6,245266914E0
6,021754583E1;6,790830612E0;-5,006981373E0;-2,791825771E0
6,031754583E1;5,342574596E0;-1,162852001E1;-6,027520180E0
6,041754583E1;4,596612453E0;-9,211769104E0;-6,183053493E0
6,051754583E1;5,111069202E0;-7,371688366E0;-6,592226505E0
6,061754583E1;6,885347366E0;-9,973284721E0;-5,119443893E0
6,071754583E1;4,113860130E0;-8,718249321E0;-6,245865345E0
6,081754583E1;1,333998680E0;-2,498705149E0;-3,611367464E0
6,091754583E1;4,232305050E0;-4,814957142E0;-7,808976650E0
6,101754583E1;3,949353695E0;-1,003190875E0;-2,552543640E0
6,111754583E1;5,386841774E0;-8,678169250E0;-1,024845982E1
6,121754583E1;1,619342685E0;-9,823733330E0;-6,221339107E-1
6,131754583E1;2,311466694E0;-6,396613121E0;-4,802993298E0
6,141754583E1;5,542973518E0;-8,406583786E0;-9,604789734E0
6,151754583E1;6,074180126E0;-1,092144108E1;-6,571887493E0
6,161754583E1;6,982256413E0;-6,736992359E0;-4,257429600E0
6,171754583E1;3,004188776E0;-5,341976643E0;-4,426123619E0
6,181754583E1;6,404987812E0;-8,684749603E0;-6,466004848E0
6,191754583E1;4,110869408E0;-3,554538012E0;-5,161916733E0
6,201754583E1;3,846462488E0;-3,504288673E0;-6,958328247E0
6,211754583E1;4,349553585E0;-7,438089371E0;-5,496313572E0
6,221754583E1;2,891726255E0;-2,615355253E0;-4,278964996E0
6,231754583E1;5,643472195E0;-6,983452797E0;-7,975875854E0
6,241754583E1;2,574079037E0;-4,825725079E0;-3,242274761E0
6,251754583E1;2,791825771E0;-8,001599312E0;-7,216155052E0
6,261754583E1;2,764906645E0;-2,657827854E0;-4,822733879E0
6,271754583E1;6,348756790E0;-1,050329494E1;-9,129815102E0
6,281754583E1;7,010970116E-1;1,387837082E-1;-4,442275047E0
6,291754583E1;1,534756470E1;-1,246421337E1;-1,762792397E1
6,301754583E1;1,844268084E0;-1,599003673E0;-4,849055290E0
6,311754583E1;3,754936934E0;-2,489133835E0;-3,683750391E0
6,321754583E1;6,445067883E0;-7,725826263E0;-1,339322662E1
6,331754583E1;-3,672982752E-1;-1,914258122E0;3,227319479E0
6,341754583E1;9,791430473E0;-1,183849049E1;-1,958286095E1
6,351754583E1;1,356730461E0;-4,388436794E0;-2,758924484E0
6,361754583E1;3,142374277E0;-6,426523209E0;-5,273182869E0
6,371754583E1;9,125029564E0;-3,675375462E0;-9,281160355E0
6,381754583E1;5,221737385E0;-3,772883177E0;-8,928817749E0
6,391754583E1;5,327619553E0;-6,405586243E0;-6,873383045E0
6,401754583E1;3,629911900E0;-5,188237667E0;-6,229713917E0
6,411754583E1;8,750552177E0;-7,389634609E0;-9,859027863E0
6,421754583E1;4,333401680E0;-4,538586140E0;-6,616154671E0
6,431754583E1;3,988835335E0;8,907282352E-1;-7,457231998E0
6,441754583E1;3,831507206E0;-3,774079561E0;-9,580264091E0
6,451754583E1;5,541179180E0;-3,477369547E0;-4,003790379E0
6,461754583E1;3,273381472E0;-6,459424496E0;-5,947360516E0
6,471754583E1;6,196812630E0;-1,840678811E0;-2,410768747E0
6,481754583E1;6,280561447E0;-1,521237016E0;-5,833103180E0
6,491754583E1;5,766104221E0;-1,001934624E1;-5,011766911E0
6,501754583E1;5,862415314E0;-1,077607632E1;-8,315656662E0
6,511754583E1;4,642673969E0;-9,941579819E0;-3,471387386E0
6,521754583E1;6,313462734E0;-1,149153042E1;-6,216553211E0
6,531754583E1;4,559523582E0;-8,749356270E0;-4,694119930E0
6,541754583E1;5,881557941E0;-8,282156944E0;-6,060421467E0
6,551754583E1;6,286543369E0;-6,554539204E0;-3,640081406E0
6,561754583E1;4,747958183E0;-6,025725842E0;-7,470990658E0
6,571754583E1;3,317050457E0;-4,092324734E0;-6,108876228E0
6,581754583E1;1,733001828E0;-4,791627407E0;-6,943971157E0
6,591754583E1;5,656632900E0;-3,862613916E0;-6,296114445E0
6,601754583E1;3,264408350E0;-3,902693748E0;-4,752145767E0
6,611754583E1;2,172683001E0;-8,135597229E0;-6,215356827E0
6,621754583E1;7,073183537E0;-6,865008354E0;-5,523232937E0
6,631754583E1;1,075155067E1;-1,796172333E1;-1,059721375E1
6,641754583E1;1,007976532E1;-9,719645500E0;-7,244270325E0
6,651754583E1;9,655039310E-1;-4,158725739E0;-6,634100914E0
6,661754583E1;4,821537495E0;-5,289932728E0;-7,378866673E0
6,671754583E1;2,698505640E0;-2,276770830E0;-3,548556089E0
6,681754583E1;-1,834098577E0;-4,178466320E0;-5,347360611E0
6,691754583E1;3,087937593E0;-4,096512318E0;-1,841277003E0
6,701754583E1;3,565305710E0;-4,399802685E0;-6,418746710E-1
6,711754583E1;4,229313850E0;-1,224168110E1;-1,179482079E1
6,721754583E1;3,339184046E0;-7,727620602E0;-5,531607628E0
6,731754583E1;5,857629776E0;-1,089272690E1;-1,108175945E1
6,741754583E1;4,788636208E0;-6,633502483E0;-7,645666599E0
6,751754583E1;4,953142643E0;-5,019543648E0;-5,559125423E0
6,761754583E1;7,944171429E-1;-2,316252232E0;-3,410370588E0
6,771754583E1;-6,640082598E-2;-1,283749342E0;-1,405185103E0
6,781754583E1;6,218945980E0;-4,560121536E0;-3,695116282E0
6,791754583E1;3,068196774E0;-1,045424175E1;-4,473979950E0
6,801754583E1;4,459623337E0;-8,766105652E0;-7,188039303E0
6,811754583E1;1,000199890E1;-8,720044136E0;-6,893722057E0
6,821754583E1;5,256433010E0;-8,552546501E0;-2,550748825E0
6,831754583E1;4,784449100E0;-1,040040398E1;-8,931210518E0
6,841754583E1;5,181059361E0;-4,392025948E0;-2,317448616E0
6,851754583E1;1,414756417E0;-4,376472473E0;-5,176273346E0
6,861754583E1;1,451845169E0;-2,190629244E0;-5,643472195E0
6,871754583E1;5,860022545E0;-8,877371788E0;-8,967700958E0
6,881754583E1;4,645665169E0;-4,724628448E0;-3,390031576E0
6,891754583E1;6,780661106E0;-1,454596901E1;-8,651848793E0
6,901754583E1;1,813759565E0;-1,408415413E1;-6,344569206E0
6,911754583E1;3,493520916E-1;-7,790432453E0;-3,799802303E0
6,921754583E1;1,633699656E0;-6,190830231E0;-4,305285931E0
6,931754583E1;1,668036652E1;-1,142154026E1;-1,609592056E1
6,941754583E1;-4,410570145E0;2,578864574E0;8,451449394E0
6,951754583E1;7,764709592E-1;-6,010172367E0;-6,014957905E0
6,961754583E1;3,239283562E0;-6,424728870E0;-3,413959742E0
6,971754583E1;3,785445452E0;-8,670392990E0;-1,710269928E0
6,981754583E1;6,037689686E0;-6,899106026E0;-3,299104214E0
6,991754583E1;3,793222189E0;-9,035298347E0;-4,676173687E0
7,001754583E1;1,822732687E0;-5,341976643E0;-6,912864685E0
7,011754583E1;4,402793884E0;-3,976871252E0;-4,778466702E0
7,021754583E1;3,236890793E0;-6,011967063E-1;-6,599404812E0
7,031754583E1;1,011565804E0;-1,865803480E0;-4,578067780E0
7,041754583E1;9,311669350E0;-1,135095215E1;-5,405984402E0
7,051754583E1;1,524227977E0;-5,891129494E0;-7,029514790E0
7,061754583E1;1,417388535E1;-1,509452343E1;-1,078205872E1
7,071754583E1;4,876572609E0;-7,838887215E0;-3,498306751E0
7,081754583E1;6,071787357E0;-7,213762283E0;-4,325026989E0
7,091754583E1;6,023931026E0;-4,012165546E0;-6,477370739E0
7,101754583E1;5,446662426E0;-2,413161755E0;-1,106022453E1
7,111754583E1;-2,900100946E0;-1,250309658E1;-4,892724037E0
7,121754583E1;1,141496086E1;-7,202396393E-1;-4,934000492E0
7,131754583E1;7,187440872E0;-3,023331404E0;-1,624128342E1
7,141754583E1;2,182852507E0;-1,240798187E1;-9,911669731E0
7,151754583E1;9,333204269E0;-9,492327690E0;-8,604590416E0
7,161754583E1;5,367101192E0;-1,117926693E1;-1,550848198E1
7,171754583E1;7,363313675E0;-1,308395386E1;-4,491926193E0
7,181754583E1;2,922832966E0;-1,782054663E0;-1,077488041E1
7,191754583E1;-2,892922640E0;1,611566067E0;-6,857231617E0
7,201754583E1;9,399605751E0;-7,477570534E0;-7,088736892E-1
7,211754583E1;2,356332064E0;-6,841079712E0;-1,212562919E0
7,221754583E1;9,922437668E0;-1,753161240E1;-1,390768337E1
7,231754583E1;9,419944763E0;-1,077787113E1;-4,944767952E0
7,241754583E1;4,969294548E0;-1,081137085E1;-5,188237667E0
7,251754583E1;6,703492641E0;-5,187639713E0;-4,257429600E0
7,261754583E1;1,197009563E0;5,107480049E0;-1,086879826E1
7,271754583E1;8,928817749E0;-5,371886730E0;2,810968399E0
7,281754583E1;5,888736725E0;-7,959126472E0;-1,118644550E-1
7,291754583E1;6,696912289E0;-1,042134094E1;-6,655037880E0
7,301754583E1;5,587839127E0;-9,909276962E0;4,158725739E0
7,311754583E1;3,753142357E0;-9,465408325E0;-4,941776752E0
7,321754583E1;5,941977024E0;-8,869595528E0;-3,276372433E0
7,331754583E1;6,907480717E0;-3,817748547E0;-6,881159782E0
7,341754583E1;-3,467200041E0;-9,493523836E-1;-3,854837179E0
7,351754583E1;6,485745907E0;-8,533403397E0;-1,228714466E0
7,361754583E1;1,508674622E0;-9,050851464E-1;-5,313860893E0
7,371754583E1;5,431707382E0;-8,215756416E0;-6,065805554E-1
7,381754583E1;5,437091351E0;-7,367500782E0;-1,167637634E1
7,391754583E1;7,074978352E0;-6,049055576E0;-4,101896286E0
7,401754583E1;5,547161102E0;-3,301496983E0;-3,669393539E0
7,411754583E1;3,066402197E0;-5,691926956E0;-4,094717979E0
7,421754583E1;-5,365904570E-1;-4,598406792E0;-4,750350952E0
7,431754583E1;2,851048231E0;-3,032902718E0;-8,467002869E0
7,441754583E1;7,535596848E0;-1,434078407E1;-1,040279675E1
7,451754583E1;8,716454506E0;-9,556933403E0;-9,744770050E0
7,461754583E1;4,667200565E0;-8,681160927E0;-2,691327333E0
7,471754583E1;8,067401886E0;-9,969695091E0;-2,311466694E0
7,481754583E1;5,806782246E0;-5,601597786E0;-4,526023865E0
7,491754583E1;4,103092670E0;-1,330409408E0;-6,039484501E0
7,501754583E1;-9,661021233E-1;-1,188036442E0;-8,494520187E-2
7,511754583E1;6,040680885E0;-6,970292568E0;-3,756731510E0
7,521754583E1;8,565108299E0;-8,028517723E0;-7,671987534E0
7,531754583E1;5,243272781E0;-1,053679466E1;-7,707880020E0
7,541754583E1;8,711668968E0;-1,319043446E1;-6,075974941E0
7,551754583E1;3,293122053E0;-5,975476265E0;-3,434896946E0
7,561754583E1;8,036294937E0;-8,098507881E0;-1,229611778E1
7,571754583E1;7,785646915E0;-6,637091637E0;-5,773283005E0
7,581754583E1;5,394020557E0;-7,220940590E0;-5,126024246E0
7,591754583E1;1,343569875E0;-3,828516304E-1;-1,046142101E1
7,601754583E1;4,711467743E0;-4,923830986E0;-1,025563812E1
7,611754583E1;3,811168194E0;-8,227720261E0;-4,186841488E0
7,621754583E1;4,867599487E0;-1,043031406E1;-8,471788406E0
7,631754583E1;6,098706722E0;-9,325428009E0;-1,951346874E0
7,641754583E1;7,575078487E0;-7,335795879E0;-5,173282623E0
7,651754583E1;5,168497086E0;-5,829514027E0;-4,767699242E0
7,661754583E1;6,282954216E0;-6,270391941E0;-5,958128452E0
7,671754583E1;3,718446493E0;-2,609971285E0;-3,080160856E0
7,681754583E1;4,092923164E0;-3,867997885E0;8,751748800E-1
7,691754583E1;1,169791126E1;-7,423133850E0;1,055832958E1
7,701754583E1;9,297910690E0;-1,584646797E1;-7,770691514E-1
7,711754583E1;1,864008784E0;-1,263410378E1;-7,912466049E0
7,721754583E1;8,922835350E0;-1,017009449E1;-9,202795982E0
7,731754583E1;1,428634739E1;-8,992227554E0;-7,412366390E0
7,741754583E1;2,535793781E0;-5,448457241E0;-2,723032236E0
7,751754583E1;4,899304390E0;-5,021338463E0;-4,445266247E0
7,761754583E1;2,254039049E0;-2,367697954E0;-3,321835995E0
7,771754583E1;2,590230405E-1;-2,593221426E0;-3,068196774E0
7,781754583E1;4,293322086E0;-6,587440968E0;-5,603990555E0
7,791754583E1;4,965705395E0;-7,727022648E0;-5,452644825E0
7,801754583E1;2,072782516E0;-6,165705681E0;-1,993221283E0
7,811754583E1;4,231706619E0;-7,929215908E0;-3,089732170E0
7,821754583E1;4,010370731E0;-7,991429329E0;-2,181057930E0
7,831754583E1;6,051448345E0;-8,283951759E0;-5,233103275E0
7,841754583E1;5,726622581E0;-4,003192425E0;-5,239085197E0
7,851754583E1;3,334398270E0;-3,972683907E0;-2,410170555E0
7,861754583E1;2,698505640E0;-2,697309256E0;-4,463212490E0
7,871754583E1;7,748558044E0;-1,062054348E1;-1,281356573E0
7,881754583E1;7,499105930E0;-1,095553875E1;-5,441278458E0
7,891754583E1;4,744967461E0;-1,034118080E1;-6,613163471E0
7,901754583E1;6,415755749E0;-1,099741268E1;-4,482953072E0
7,911754583E1;6,198009014E0;-4,734797955E0;-6,704091072E0
7,921754583E1;4,833501816E0;-5,331208706E0;-5,212764263E0
7,931754583E1;5,130809784E0;-7,178467751E0;-9,172286987E0
7,941754583E1;3,957728624E0;1,208375469E-1;-3,506681681E0
7,951754583E1;4,471587181E0;-2,182254314E0;-6,810571671E0
7,961754583E1;4,643272400E0;-5,648257732E0;-3,352942705E0
7,971754583E1;5,108078003E0;-9,680164337E0;8,901300430E-1
7,981754583E1;1,025503922E1;-8,819944382E0;-4,092923164E0
7,991754583E1;4,185046673E0;-1,058046341E1;-5,163113117E0
8,001754583E1;7,429116249E0;-6,429514408E0;-2,423929453E0
8,011754583E1;6,836892605E0;-4,157529354E0;-6,397211552E0
8,021754583E1;3,425325632E0;-6,010172367E0;-2,459821701E0
8,031754583E1;2,727219582E0;-1,163509965E0;-2,964108944E0
8,041754583E1;5,432903767E0;-6,729813576E0;-3,909274101E0
8,051754583E1;4,172484398E0;-8,120641708E0;1,798804402E0
8,061754583E1;7,328617573E0;-1,186840057E1;-5,676373482E0
8,071754583E1;7,063612461E0;-7,206583500E0;-9,176474571E0
8,081754583E1;7,286144733E0;-1,084726334E1;-3,400799274E0
8,091754583E1;7,095915318E0;-5,755934715E0;-1,149751306E0
8,101754583E1;3,999603033E0;-5,239683151E0;-4,303491592E0
8,111754583E1;1,777269006E0;-3,433102369E0;-3,373879910E0
8,121754583E1;3,120240688E0;-1,016949654E0;-2,697907448E0
8,131754583E1;4,982454777E0;-9,916455269E0;-6,084948063E0
8,141754583E1;4,627120972E0;-6,013163090E0;-6,290132523E0
8,151754583E1;6,623332977E0;-1,169013500E1;-8,446664214E-1
8,161754583E1;6,674180508E0;-7,376473904E0;-5,557928562E0
8,171754583E1;4,569094658E0;-7,695317745E0;1,509871125E0
8,181754583E1;5,105087280E0;-6,244070530E0;-6,208776474E0
8,191754583E1;3,264408350E0;-3,664009571E0;-4,800002098E0
8,201754583E1;-2,949153781E-1;-1,354935765E0;-6,182455540E0
8,211754583E1;5,027918816E0;-1,894517303E0;-3,993621111E0
8,221754583E1;7,975277901E0;-7,316653252E0;-5,690132141E0
8,231754583E1;6,781259537E0;-9,157930374E0;-7,830512047E0
8,241754583E1;4,710271358E0;-6,023931026E0;-5,682953835E0
8,251754583E1;2,243271112E0;-1,073001480E1;-4,680361271E0
8,261754583E1;6,094519138E0;-9,424730301E0;-3,064009428E0
8,271754583E1;4,362115860E0;-6,685546398E0;-3,615555048E0
8,281754583E1;3,850051641E0;-3,644867182E0;-1,643270969E0
8,291754583E1;4,434498787E0;-1,328614831E0;-4,295116425E0
8,301754583E1;1,436291814E0;-5,393422127E0;-1,188096237E1
8,311754583E1;2,453839540E0;-1,018325520E1;-2,413161755E0
8,321754583E1;5,800800323E0;-8,832506180E0;-6,677769661E0
8,331754583E1;1,144606686E1;-1,001276588E1;-8,816953659E0
8,341754583E1;5,930611134E0;-1,123669529E1;-7,606184959E0
8,351754583E1;7,896913052E0;-7,633702278E0;-4,627718925E0
8,361754583E1;4,745565414E0;-2,024926186E0;-6,534200668E0
8,371754583E1;4,263411522E0;-4,902295589E0;-2,967698336E0
8,381754583E1;6,406782866E-1;-3,781257868E0;-6,628716946E0
8,391754583E1;5,797211170E0;-7,920243144E-1;-7,716853142E0
8,401754583E1;4,685146809E0;-1,236790180E1;-7,307680130E0
8,411754583E1;3,844069481E0;-8,278568268E0;2,435893536E0
8,421754583E1;9,907482147E0;-8,046463966E0;-6,838088989E0
8,431754583E1;6,897909641E0;-8,844470978E0;-6,255436420E0
8,441754583E1;5,197210789E0;-8,243273735E0;-1,862812400E0
8,451754583E1;5,149952412E0;-6,570092678E0;-5,495715618E0
8,461754583E1;4,809573591E-1;-2,358724833E0;-4,010370731E0
8,471754583E1;1,504487276E0;-4,804787636E0;-3,754936934E0
8,481754583E1;3,355933666E0;-5,481358528E0;-4,841278553E0
8,491754583E1;5,316852093E0;-1,253240871E1;-7,074379921E0
8,501754583E1;5,828916073E0;-1,255992603E1;-4,418346882E0
8,511754583E1;5,812764645E0;-1,078385353E1;-5,973083496E0
8,521754583E1;1,137727356E1;-9,579665184E0;-6,949953556E0
8,531754583E1;9,764511108E0;-1,143290615E1;-5,816951752E0
8,541754583E1;4,199403763E0;-2,302493572E0;-5,251647472E0
8,551754583E1;4,548755646E0;-2,895315409E0;-2,015354872E0
8,561754583E1;5,018347263E0;-7,764709592E-1;-7,280162811E0
8,571754583E1;3,069991350E0;-6,441478729E0;-1,067198873E0
8,581754583E1;6,147161484E0;-9,862616539E0;-5,480162144E0
8,591754583E1;9,349954605E0;-1,254796219E1;-4,511667252E0
8,601754583E1;2,958725214E0;-8,301300049E0;-5,589633465E0
8,611754583E1;7,115656376E0;-8,179265976E0;-7,319046497E0
8,621754583E1;8,213961601E0;-1,020299530E1;-4,026522160E0
8,631754583E1;2,671586514E0;-1,928615093E0;-3,190230846E0
8,641754583E1;-1,890329868E-1;6,646065116E-1;-3,313461065E0
8,651754583E1;5,562116146E0;-5,111069202E0;-2,181057930E0
8,661754583E1;6,589833736E0;-9,790832520E0;-6,208178520E0
8,671754583E1;8,884550095E0;-1,400519085E1;-9,321838379E0
8,681754583E1;5,012963295E0;-9,162715912E0;-4,644468784E0
8,691754583E1;9,513862610E0;-1,141615677E1;-3,536591768E0
8,701754583E1;5,069792747E0;-4,724628448E0;-5,000999451E0
8,711754583E1;4,287938118E0;-9,419944763E0;-3,920639992E0
8,721754583E1;6,519245148E0;4,420739710E-1;-5,557330847E-1
8,731754583E1;2,717648268E0;-6,614958286E0;7,357929349E-1
8,741754583E1;7,398009300E0;-9,075976372E0;-5,476572990E0
8,751754583E1;3,893720627E0;-8,666205406E0;-6,115456581E0
8,761754583E1;2,023131609E0;-7,509873867E0;-1,433300734E0
8,771754583E1;1,412184143E1;-1,173081303E1;-8,610571861E0
8,781754583E1;4,973481655E0;-3,824328899E0;-5,839683533E0
8,791754583E1;2,352144718E0;-3,362514019E0;-3,232105255E0
8,801754583E1;-2,859423161E-1;1,366899967E0;-2,876770973E0
8,811754583E1;8,658429146E0;-1,200359440E1;-6,872784615E0
8,821754583E1;6,754340172E0;-8,887541771E0;-6,130411625E0
8,831754583E1;2,889333248E0;-8,191828728E0;-5,011766911E0
8,841754583E1;5,253442287E0;-1,012881851E1;-4,918447018E0
8,851754583E1;5,675177097E0;-6,991827965E0;-5,562116146E0
8,861754583E1;2,993421078E0;-5,026721954E0;-4,817948341E0
8,871754583E1;1,914856315E0;-3,544966698E0;-2,303091764E0
8,881754583E1;3,048455954E0;-2,268994093E0;-3,213560820E0
8,891754583E1;6,315855503E0;-1,296730423E1;-4,446462631E0
8,901754583E1;6,813562393E0;-7,530810833E0;-9,399007797E0
8,911754583E1;7,405786037E0;-1,216989613E1;-1,460100365E1
8,921754583E1;5,584847927E0;-8,958727837E0;-4,130609989E0
8,931754583E1;4,833501816E0;-5,723631859E0;-4,862215519E0
8,941754583E1;5,954539299E0;-3,183650494E0;-3,483949661E0
8,951754583E1;1,115653515E0;1,941775560E0;-1,925624013E0
8,961754583E1;4,226323128E0;-9,835099220E0;-4,793421745E0
8,971754583E1;1,315872955E1;-9,354142189E0;-6,672386169E0
8,981754583E1;7,849056244E0;-8,774480820E0;-6,601199627E0
8,991754583E1;5,326423168E0;-1,001994514E1;5,904290080E-1
9,001754583E1;5,073382378E0;-1,084427261E1;-6,702296257E0
9,011754583E1;5,729613781E0;-7,267600536E0;-7,520043373E0
9,021754583E1;6,917650223E0;-2,754138947E0;-4,701298237E0
9,031754583E1;2,377867460E0;5,162515044E-1;-3,972683907E0
9,041754583E1;6,852446079E0;-6,945167542E0;-2,840878725E0
9,051754583E1;6,520441532E0;-1,237627697E1;-7,727022648E0
9,061754583E1;3,075375319E0;-1,410030556E1;-7,937591076E0
9,071754583E1;4,255635262E0;-6,643074036E0;-2,645265341E0
9,081754583E1;1,237448215E1;-5,143970490E0;-1,198564816E1
9,091754583E1;5,008776188E0;-4,851448059E0;-7,221538544E0
9,101754583E1;5,259424210E0;-2,504088879E0;-2,944966555E0
9,111754583E1;7,688737392E0;1,668993831E-1;-5,158327579E0
9,121754583E1;5,961717606E0;-5,115256786E0;-4,207180500E0
9,131754583E1;6,535397053E0;-1,083709335E1;-7,369893551E0
9,141754583E1;5,365306377E0;-8,091927528E0;3,646063566E0
9,151754583E1;4,238885403E0;-9,552147865E0;-1,396810174E0
9,161754583E1;7,794619560E0;-6,210571289E0;-7,423133850E0
9,171754583E1;3,360719442E0;-3,641277790E0;-4,699503899E0
9,181754583E1;1,375873089E-1;-9,637092948E-1;-1,917249203E0
9,191754583E1;9,527621269E0;-5,236093998E0;-5,065007210E0
9,201754583E1;4,113262177E0;-7,103094101E0;-5,949753284E0
9,211754583E1;6,136393547E0;-4,968696117E0;1,840678811E0
9,221754583E1;9,665806770E0;-9,187840462E0;-8,099106789E0
9,231754583E1;3,962514400E0;-8,977870941E0;-1,350150228E0
9,241754583E1;4,121038914E0;-6,212365627E0;-2,995215654E0
9,251754583E1;4,594817638E0;-3,501895905E0;-7,469195843E0
9,261754583E1;-1,225723386E0;-1,797608018E0;-2,498705149E0
9,271754583E1;3,740580082E0;-3,399602890E0;-2,986242771E0
9,281754583E1;6,341578007E0;-1,208554935E1;-7,000801086E0
9,291754583E1;5,846862316E0;-8,556135178E0;-5,952744484E0
9,301754583E1;1,056431198E1;-1,168534946E1;-1,342852020E1
9,311754583E1;5,416752338E0;-5,595615864E0;-1,007378340E0
9,321754583E1;4,183850288E0;-7,757531166E0;-7,108478069E0
9,331754583E1;7,150950432E0;-7,208378315E0;-3,336791277E0
9,341754583E1;-1,170688510E0;3,039483070E0;-5,006382942E0
9,351754583E1;5,206781864E0;-3,644867182E0;-4,779663086E0
9,361754583E1;6,576673031E0;-9,101100922E0;-7,533802032E0
9,371754583E1;6,106483459E0;-8,916254997E0;-5,387440205E0
9,381754583E1;8,772686005E0;-1,180439186E1;-1,779661894E0
9,391754583E1;4,103092670E0;-9,072985649E0;2,004587173E0
9,401754583E1;6,613163471E0;-6,977470875E0;-8,109873772E0
9,411754583E1;4,480560303E0;-6,332006931E0;-4,118047714E0
9,421754583E1;3,454039574E0;-2,345564365E0;-4,728217602E0
9,431754583E1;4,652843475E0;-2,755335331E0;-3,725624800E0
9,441754583E1;5,271986485E0;-8,520243645E0;-7,503891945E0
9,451754583E1;5,646463394E0;-5,330610752E0;-7,947162151E0
9,461754583E1;2,406581402E0;-9,452845573E0;2,879163742E0
9,471754583E1;1,759322882E0;-8,864809990E0;-6,957131624E-1
9,481754583E1;7,682157040E0;-6,259026051E0;-6,623931408E0
9,491754583E1;6,041278839E0;-3,617349625E0;-5,598606586E0
9,501754583E1;1,938186288E0;-3,543770313E0;-3,616751432E0
9,511754583E1;3,653840065E0;-2,912065268E0;-3,293122053E0
9,521754583E1;5,944967747E0;-7,142575741E0;-4,724628448E0
9,531754583E1;4,274179459E0;-1,355474186E1;-2,097907305E0
9,541754583E1;5,246861935E0;-6,702894211E0;-7,625327587E0
9,551754583E1;3,844667673E0;-8,550153732E0;-3,731008768E0
9,561754583E1;6,478567123E0;-6,081956863E0;-4,749154568E0
9,571754583E1;5,359324455E0;-5,481358528E0;-5,121836662E0
9,581754583E1;4,016951084E0;-2,678166628E0;-3,576671600E0
9,591754583E1;7,178468257E-2;-1,448255897E0;-1,107278705E0
9,601754583E1;6,319444656E0;-4,317848682E0;-3,665804386E0
9,611754583E1;4,587639332E0;-1,186840057E1;-1,211366415E0
9,621754583E1;5,365904808E0;-9,620343208E0;-3,099303484E0
9,631754583E1;9,111269951E0;-9,993623734E0;-1,002951622E1
9,641754583E1;5,335396290E0;-8,528019905E0;-4,398606300E0
9,651754583E1;5,081757069E0;-6,126822472E0;-4,722235680E0
9,661754583E1;5,120640278E0;-4,104289055E0;-4,490729809E0
9,671754583E1;2,958127022E0;-4,433301926E0;-5,560321808E0
9,681754583E1;5,062016487E0;-1,752144337E0;-3,649054527E0
9,691754583E1;5,165505886E0;-4,272983074E0;-7,897511005E0
9,701754583E1;5,952744484E0;-7,227520943E0;-1,183848977E0
9,711754583E1;8,186444283E0;-1,371087360E1;-2,387438774E0
9,721754583E1;2,778067112E0;-8,718249321E0;-8,416753411E-1
9,731754583E1;8,356334686E0;-7,957930088E0;-6,996613503E0
9,741754583E1;6,537191391E0;-5,485546112E0;-3,437289715E0
9,751754583E1;2,831905603E0;-1,677966833E0;-1,065942669E1
9,761754583E1;5,863013744E0;4,941178858E-1;-4,600201607E0
9,771754583E1;5,059623718E0;-8,228319168E0;-2,778665304E0
9,781754583E1;7,663612843E0;-1,219262791E1;-3,763311863E0
9,791754583E1;6,450451851E0;-1,183071327E1;-8,918049812E0
9,801754583E1;6,664011002E0;-8,663214684E0;-6,063412666E0
9,811754583E1;8,428717613E0;-7,990232944E0;-4,124628067E0
9,821754583E1;3,497708559E0;-4,698905468E0;-4,399204254E0
9,831754583E1;5,466403484E0;-7,834101200E0;-5,648257732E0
9,841754583E1;2,357528448E0;-3,326023579E0;-2,915654421E0
9,851754583E1;-3,176471949E0;-7,627122402E-1;-1,322632670E0
9,861754583E1;4,469194412E0;-1,055713367E1;-1,736590981E0
9,871754583E1;1,017787075E1;-1,861795425E1;-1,532004714E0
9,881754583E1;7,384250641E0;-9,846465111E0;-5,926423550E0
9,891754583E1;8,096714020E0;-7,195816040E0;-3,792623997E0
9,901754583E1;3,611367464E0;-5,284548759E0;-2,882154942E0
9,911754583E1;5,539982796E0;-4,180261135E0;-6,235695839E0
9,921754583E1;-3,510869026E0;-9,756734371E-1;-2,429313183E0
9,931754583E1;3,719044685E0;-8,640482903E0;-4,073780537E0
9,941754583E1;7,204190731E0;-9,634101868E0;-2,825923443E0
9,951754583E1;8,285746574E0;-8,930612564E0;-1,000738239E1
9,961754583E1;4,127619267E0;-8,955139160E0;-5,932405472E0
9,971754583E1;9,358927727E0;-1,013360405E1;-6,352944374E-1
9,981754583E1;8,442476273E0;-9,757930756E0;-5,661418438E0
9,991754583E1;9,150154114E0;-7,876574039E0;-4,436891556E0
1,000175458E2;-7,097112179E0;5,540580750E0;1,963310957E0
1,001175458E2;7,379465103E0;-6,652047157E0;-5,389235020E0
1,002175458E2;5,992824078E0;-9,605986595E0;-4,490729809E0
1,003175458E2;4,357329845E0;-5,273182869E0;-1,584048629E0
1,004175458E2;4,956133842E0;-1,247438240E1;-7,517052174E0
1,005175458E2;8,839086533E0;-7,715656757E0;-1,914258122E0
1,006175458E2;4,710869789E0;-7,278966427E0;-4,645066738E0
1,007175458E2;5,653641701E0;-3,750749588E0;-5,577669621E0
1,008175458E2;-5,425725579E-1;5,156532526E-1;-2,861815929E0
1,009175458E2;5,349753380E0;-3,923032761E0;-4,821537495E0
1,010175458E2;6,891329288E0;-7,675576687E0;-4,758127689E0
1,011175458E2;6,568896294E0;-1,165005493E1;-8,035098076E0
1,012175458E2;6,942176819E0;-6,437889099E0;-8,676374435E0
1,013175458E2;5,462814331E0;-8,140382767E0;-1,102493048E0
1,014175458E2;6,995417118E0;-9,659825325E0;-5,080560684E0
1,015175458E2;2,215753794E0;-2,417349100E0;-7,071389198E0
1,016175458E2;4,432703853E-1;-2,105683982E-1;-1,064806104E0
1,017175458E2;4,887340069E0;-9,284151793E-1;-4,965705395E0
1,018175458E2;5,983851433E0;-1,032024384E1;-2,524427891E0
1,019175458E2;1,059482002E1;-9,179466248E0;-5,070989609E0
1,020175458E2;8,478966713E0;-6,815357208E0;-6,800402164E0
1,021175458E2;1,846660852E0;-9,924830437E0;-2,172683001E0
1,022175458E2;5,040481091E0;-6,419943333E0;-7,969893932E0
1,023175458E2;4,300500393E0;-4,188635826E0;-4,990231514E0
1,024175458E2;4,496113777E0;-5,306682587E0;-1,761117458E0
1,025175458E2;5,690132141E0;-3,147160053E0;-2,325823545E0
1,026175458E2;5,922834396E0;-8,358727455E0;-3,458825111E0
1,027175458E2;7,998608112E0;-9,208179474E0;-4,491926193E0
1,028175458E2;4,972285271E0;-1,266760349E1;-5,538187981E0
1,029175458E2;2,897109985E0;-8,973683357E0;-3,492922783E0
1,030175458E2;6,072385788E0;-6,149554253E0;-3,175873756E0
1,031175458E2;8,386244774E0;-7,891529083E0;-6,604788780E0
1,032175458E2;4,062414646E0;-3,052045345E0;-2,667398930E0
1,033175458E2;2,385046005E0;-3,148356438E0;-3,394218922E0
1,034175458E2;4,704887390E0;-5,620740414E0;-3,380460262E0
1,035175458E2;5,938387394E0;-1,085145092E1;-6,779464722E0
1,036175458E2;3,640081406E0;-1,266042423E1;-1,009830952E1
1,037175458E2;4,938187599E0;-7,777870178E0;-3,506681681E0
1,038175458E2;4,501497746E0;-7,878368378E0;-2,472982168E0
1,039175458E2;2,479562521E0;-4,293920040E0;-5,650650501E0
1,040175458E2;5,023132801E0;-2,904288530E0;-4,428516388E0
1,041175458E2;4,115654826E-1;-1,184447169E0;-2,676372051E0
1,042175458E2;7,200601578E0;-9,440881729E0;4,486542568E-2
1,043175458E2;7,801798344E0;-8,949156761E0;-4,884349346E0
1,044175458E2;8,700901031E0;-1,011565781E1;-6,927221775E0
1,045175458E2;3,095116138E0;-7,286743164E0;-2,864208698E0
1,046175458E2;1,057089233E1;-1,094417286E1;-9,197412491E0
1,047175458E2;6,299703598E0;-4,688137531E0;-6,239883423E0
1,048175458E2;-9,565308690E-1;9,451649189E-1;-1,219143152E0
1,049175458E2;3,140579700E0;-3,978665829E0;-1,720439434E0
1,050175458E2;7,755736351E0;-8,866603851E0;-1,625923038E0
1,051175458E2;9,611370087E0;-1,052782154E1;-3,448655605E0
1,052175458E2;5,379065514E0;-9,495318413E0;-3,587439299E0
1,053175458E2;6,905686378E0;-9,168698311E0;-3,634099483E0
1,054175458E2;8,830113411E0;-9,077172279E0;-3,413959742E0
1,055175458E2;5,218147755E0;-4,708476543E0;-3,600001574E0
1,056175458E2;8,823533654E-1;1,156331539E0;-9,990034699E-1
1,057175458E2;6,435496330E0;-1,458425403E0;-3,858426571E0
1,058175458E2;8,764909744E0;-8,672785759E0;-5,905486107E0
1,059175458E2;1,120977592E1;-1,556890011E1;-5,483152866E0
1,060175458E2;6,745367050E0;-9,088538170E0;-1,776072621E0
1,061175458E2;7,972885132E0;-1,225902843E1;-4,356133461E0
1,062175458E2;5,184050083E0;-7,550551891E0;-1,911865234E0
1,063175458E2;4,704887390E0;-4,068994999E0;-5,703890800E0
1,064175458E2;4,525425911E0;-2,980858803E0;-3,136990547E0
1,065175458E2;7,319644451E0;-2,785245657E0;-3,311068296E0
1,066175458E2;7,788637638E0;-9,718449593E0;-5,388038158E0
1,067175458E2;7,231110096E0;-7,712665558E0;-1,968096614E0
1,068175458E2;4,638486862E0;-8,143373489E0;-5,507081509E0
1,069175458E2;6,147161484E0;-1,280160141E1;-3,428316593E0
1,070175458E2;7,732406139E0;-8,566903114E0;-4,436293125E0
1,071175458E2;1,479960799E0;-5,298307419E0;-3,513261795E0
1,072175458E2;5,568696499E0;-5,383851051E0;-2,705085993E0
1,073175458E2;-1,247258782E0;7,842476368E-1;1,935793519E0
1,074175458E2;1,430070496E1;-7,536793232E0;-9,514460564E0
1,075175458E2;5,042275429E0;-9,779465675E0;-5,367699623E0
1,076175458E2;2,346162558E0;-3,532404423E0;-1,969292998E0
1,077175458E2;-7,633104324E-1;-9,985248566E0;1,110269666E0
1,078175458E2;6,081956863E0;-1,169312572E1;-2,252244234E0
1,079175458E2;7,706683636E0;-6,747161865E0;-6,250052929E0
1,080175458E2;2,487937450E0;-6,184848309E0;-3,416950703E0
1,081175458E2;2,944966555E0;-1,886142492E0;-4,179663181E0
1,082175458E2;4,823930264E0;-4,156332970E0;-4,509274483E0
1,083175458E2;5,838487148E0;-7,277172089E0;-3,620340586E0
1,084175458E2;7,534998417E0;-9,309276581E0;-2,894717216E0
1,085175458E2;7,234699249E0;-1,145803165E1;-5,246861935E0
1,086175458E2;3,390031576E0;-8,430512428E0;-2,564507723E0
1,087175458E2;7,313064098E0;-8,871390343E0;-5,022534847E0
1,088175458E2;5,058426857E0;-5,605186939E0;-4,934598446E0
1,089175458E2;4,797011375E0;-5,192425251E0;-5,962913990E0
1,090175458E2;3,379263878E0;-3,502494097E0;-4,905286312E0
1,091175458E2;4,439882278E0;-2,495713949E0;-4,667798996E0
1,092175458E2;5,649454117E0;-5,410770416E0;-4,272384644E0
1,093175458E2;3,655036688E0;-9,310472488E0;1,289731383E0
1,094175458E2;5,931807518E0;-1,228594780E1;-6,459424496E0
1,095175458E2;4,307679176E0;-6,905686378E0;-3,920041800E0
1,096175458E2;6,370890141E0;-1,016112137E1;-4,155734539E0
1,097175458E2;3,177070379E0;-7,304689407E0;-4,035495281E0
1,098175458E2;4,909473896E0;-6,116652966E0;-4,712664127E0
1,099175458E2;5,611169338E-1;-5,162515044E-1;-1,417747378E0
1,100175458E2;5,752345562E0;-3,722633839E0;-4,742574692E0
1,101175458E2;4,698905468E0;-6,687341213E0;-3,041875839E0
1,102175458E2;7,103692055E0;-8,846863747E0;-4,869394302E0
1,103175458E2;5,398806095E0;-8,562117577E0;-4,126422882E0
1,104175458E2;3,362514019E0;-7,499704361E0;-5,630909920E0
1,105175458E2;7,631309509E0;-1,214297676E1;-4,977669239E0
1,106175458E2;6,272186279E0;-7,587042332E0;-5,374279499E0
1,107175458E2;3,261417150E0;-3,700500250E0;-2,849851847E0
1,108175458E2;5,279164791E0;-3,755535126E0;-4,521836758E0
1,109175458E2;5,376074314E0;-4,382454872E0;-3,831507206E0
1,110175458E2;5,885745525E0;-7,832306862E0;-3,480360508E0
1,111175458E2;7,242475986E0;-9,590433121E0;-3,017349243E0
1,112175458E2;6,008377552E0;-9,473184586E0;-2,948555708E0
1,113175458E2;3,649054527E0;-9,607182503E0;-2,928814888E0
1,114175458E2;8,063812256E0;-8,760123253E0;-2,626122952E0
1,115175458E2;5,082355499E0;-6,686742783E0;-4,189832687E0
1,116175458E2;-3,591028690E0;-2,405983210E0;2,903092146E0
1,117175458E2;1,105603695E1;-3,637090445E0;-5,508875847E0
1,118175458E2;4,325624943E0;-6,354738712E0;-4,538586140E0
1,119175458E2;9,031110764E0;-1,523569965E1;-8,867800713E0
1,120175458E2;5,289932728E0;-1,075214863E1;4,839483798E-1
1,121175458E2;5,299503803E0;-1,003430176E1;-9,212367237E-2
1,122175458E2;9,065806389E0;-8,887541771E0;-1,953739643E0
1,123175458E2;5,966503143E0;-6,540182590E0;-4,540979385E0
1,124175458E2;1,881955028E0;-1,147358418E0;-3,721437454E0
1,125175458E2;4,708476543E0;-3,893720627E0;-3,506681681E0
1,126175458E2;5,434100151E0;-9,605986595E0;-2,946761131E0
1,127175458E2;8,324629784E0;-1,362951756E1;-6,745965004E0
1,128175458E2;4,795216560E0;-8,369495392E0;-4,407579422E0
1,129175458E2;2,918645382E0;-7,946564198E0;1,763510346E0
1,130175458E2;8,992825508E0;-9,801001549E0;-1,663609982E0
1,131175458E2;5,709873199E0;-4,832903385E0;-3,811168194E0
1,132175458E2;3,230310678E0;-1,141974568E0;-2,539382935E0
1,133175458E2;2,656033039E-1;-2,728415966E0;-2,379063845E0
1,134175458E2;1,137308598E1;-4,073182583E0;-4,992026329E0
1,135175458E2;3,739383698E0;-6,523432732E0;-2,472383976E0
1,136175458E2;7,492526054E0;-1,486541080E1;-3,117847919E0
1,137175458E2;5,873781204E0;-8,155337334E0;-5,289932728E0
1,138175458E2;6,451648235E0;-8,516654015E0;-4,057030678E0
1,139175458E2;6,617949009E0;-7,003791809E0;-5,444269657E0
1,140175458E2;5,645267010E0;-5,272584915E0;-4,186841488E0
1,141175458E2;4,689334393E0;-3,558725595E0;-3,661018610E0
1,142175458E2;2,215753794E0;-6,580262184E-1;-1,655235052E0
1,143175458E2;5,048257351E0;-4,376472473E0;-4,490131855E0
1,144175458E2;4,495515347E0;-7,786843300E0;-2,923431158E0
1,145175458E2;6,780063152E0;-9,682557106E0;-5,061418056E0
1,146175458E2;5,788836002E0;-8,160123825E0;-4,945964336E0
1,147175458E2;2,514258385E0;-9,033503532E0;-4,864010334E0
1,148175458E2;6,851847649E0;-8,869595528E0;-5,618945599E0
1,149175458E2;5,802595139E0;-6,601199627E0;-4,861019135E0
1,150175458E2;3,865006685E0;-3,293720484E0;-4,267001152E0
1,151175458E2;3,789632797E0;-2,328814745E0;-3,209971666E0
1,152175458E2;5,755336761E0;-5,866004944E0;-3,759722471E0
1,153175458E2;6,492924213E0;-9,591031075E0;-5,276174068E0
1,154175458E2;7,128817081E0;-7,422535896E0;-4,004986763E0
1,155175458E2;8,981459618E0;-9,556933403E0;-1,055174923E1
1,156175458E2;5,974878311E0;-9,463613510E0;-3,015554667E0
1,157175458E2;3,433102369E0;-5,908477306E0;-4,299304008E0
1,158175458E2;7,157530785E0;-6,168696880E0;-4,903491974E0
1,159175458E2;2,400599241E0;-2,349153519E0;-3,661018610E0
1,160175458E2;3,810570002E0;-2,757129908E0;-5,095515728E0
1,161175458E2;6,023931026E0;-7,386643410E0;-3,993621111E0
1,162175458E2;6,756134510E0;-1,087418270E1;-4,354937077E0
1,163175458E2;6,917052269E0;-9,473184586E0;-4,450650215E0
1,164175458E2;4,007379532E0;-8,521439552E0;-3,793820381E0
1,165175458E2;7,086942673E0;-9,163313866E0;-3,854837179E0
1,166175458E2;7,685746193E0;-8,992825508E0;-3,795016766E0
1,167175458E2;4,390231133E0;-4,828716278E0;-5,007579803E0
1,168175458E2;2,685345173E0;-1,338784218E0;-8,650053740E-1
1,169175458E2;6,150152206E0;-5,022534847E0;-6,372684956E0
1,170175458E2;5,591428280E0;-7,987242222E0;-5,519045353E0
1,171175458E2;7,072585583E0;-1,108714390E1;-2,624328136E0
1,172175458E2;6,928418159E0;-9,784850121E0;-3,733401537E0
1,173175458E2;4,771886349E0;-8,881559372E0;-3,894318819E0
1,174175458E2;8,382656097E0;-9,250652313E0;-5,558526993E0
1,175175458E2;6,236892223E0;-6,297310829E0;-4,069592953E0
1,176175458E2;2,867797852E0;-2,092523336E0;-2,912663460E0
1,177175458E2;3,089732170E0;-1,321436286E0;-4,263411522E0
1,178175458E2;4,021138668E0;-7,570292473E0;-3,319443226E0
1,179175458E2;7,914859295E0;-1,258265781E1;-5,645267010E0
1,180175458E2;6,732804775E0;-1,007976532E1;-4,749154568E0
1,181175458E2;6,059823513E0;-8,820542336E0;-5,106283665E0
1,182175458E2;8,197810173E0;-9,486943245E0;-3,531208038E0
1,183175458E2;6,297909260E0;-7,540980339E0;-3,496512175E0
1,184175458E2;4,369294167E0;-3,707080364E0;-3,420539856E0
1,185175458E2;9,056833982E-1;4,223332107E-1;-3,390629768E0
1,186175458E2;6,189035892E0;-5,733801365E0;-3,053839922E0
1,187175458E2;6,324230194E0;-1,038006496E1;-5,100899696E0
1,188175458E2;8,840283394E0;-1,047099209E1;-5,234897614E0
1,189175458E2;6,287739754E0;-7,508677483E0;-2,301895380E0
1,190175458E2;4,433900356E0;-9,106484413E0;-3,185445070E0
1,191175458E2;6,203392506E0;-7,362715244E0;-4,605585575E0
1,192175458E2;5,169095039E0;-1,850250125E0;-5,852245808E0
1,193175458E2;1,077547836E1;2,930609465E0;-6,670591354E0
1,194175458E2;-1,820937991E0;-5,995217323E0;-7,006783009E0
1,195175458E2;3,047857761E0;-9,311071396E0;-1,318445325E0
1,196175458E2;8,510073662E0;-1,046740246E1;-3,881756544E0
1,197175458E2;5,601597786E0;-7,657032490E0;-5,563312531E0
1,198175458E2;7,429714203E0;-1,002293587E1;-1,100100160E0
1,199175458E2;5,074578762E0;-6,631708145E0;-2,254637241E0
1,200175458E2;6,131010056E0;-4,068396568E0;-4,249652863E0
1,201175458E2;6,717849731E0;2,063809484E-1;-4,950151920E0
1,202175458E2;1,778465390E0;-3,201596737E0;-1,706082582E0
1,203175458E2;2,989831924E0;-5,851049423E0;-3,729812384E0
1,204175458E2;5,264808178E0;-1,222971630E1;-4,322035789E0
1,205175458E2;6,061617851E0;-6,541378975E0;-3,365504980E0
1,206175458E2;3,052045345E0;-1,307797241E1;-7,076174736E0
1,207175458E2;5,210371494E0;-1,001755238E1;-2,280359983E0
1,208175458E2;9,969695091E0;-3,608376503E0;-8,282755852E0
1,209175458E2;3,788436413E0;-2,501696110E0;-2,129014015E0
1,210175458E2;1,283151150E0;-1,713859200E0;-8,075776696E-1
1,211175458E2;9,537791252E0;-7,837690353E0;-5,790630817E0
1,212175458E2;4,792823792E0;-7,890332699E0;-5,288137913E0
1,213175458E2;6,205187321E0;-8,219944000E0;-3,498306751E0
1,214175458E2;5,619544029E0;-7,652246952E0;-1,726421595E0
1,215175458E2;7,540382385E0;-9,923633575E0;-5,018945694E0
1,216175458E2;7,044469833E0;-5,791827202E0;-4,574478626E0
1,217175458E2;4,043272018E0;-2,181057930E0;-3,373281717E0
1,218175458E2;2,106282234E0;-8,512466550E-1;-4,052843571E0
1,219175458E2;6,586244106E0;-7,039684296E0;-3,550948858E0
1,220175458E2;3,942175388E0;-5,208576679E0;-2,730808735E0
1,221175458E2;9,022137642E0;-1,362413406E1;-4,324428558E0
1,222175458E2;7,581658363E0;-8,613563538E0;-5,152943611E0
1,223175458E2;5,508875847E0;-9,853643417E0;-4,427320004E0
1,224175458E2;5,282155991E0;-8,245666504E0;-4,781457901E0
1,225175458E2;5,929414749E0;-6,722635269E0;-3,985844374E0
1,226175458E2;4,942973614E0;-3,859622955E0;-4,883152962E0
1,227175458E2;9,672985673E-1;2,536391914E-1;-2,090130568E0
1,228175458E2;9,511469841E0;-2,961117983E0;-4,403990269E0
1,229175458E2;6,162116528E0;-4,438087940E0;-3,330809116E0
1,230175458E2;6,107679844E0;-1,100997543E1;-2,168495417E0
1,231175458E2;6,615556240E0;-1,077667522E1;-6,251249313E0
1,232175458E2;3,746562004E0;-8,360522270E0;-1,786242127E0
1,233175458E2;5,402395248E0;-7,024130821E0;-2,707478762E0
1,234175458E2;7,005586624E0;-9,321838379E0;-3,777668715E0
1,235175458E2;5,155336380E0;-7,021139622E0;-4,881358147E0
1,236175458E2;2,712862730E0;-1,122233868E0;-2,762513638E0
1,237175458E2;3,212364435E0;-4,212564468E0;-2,708675146E0
1,238175458E2;3,278167009E0;-8,821140289E0;-4,158127785E0
1,239175458E2;8,963513374E0;-1,250728416E1;-6,803392887E0
1,240175458E2;3,786641836E0;-8,527421951E0;-2,492722988E0
1,241175458E2;6,047261238E0;-7,202396393E0;-2,784647465E0
1,242175458E2;7,861618996E0;-1,056610680E1;-4,352544308E0
1,243175458E2;6,844070911E0;-8,938986778E0;-3,716053486E0
1,244175458E2;4,650450706E0;-5,500501156E0;-3,800998688E0
1,245175458E2;3,946960926E0;-3,591028690E0;-3,897309780E0
1,246175458E2;5,274379253E0;-2,154138565E0;-4,268795490E0
1,247175458E2;5,389235020E0;-6,186044693E0;-4,244269371E0
1,248175458E2;7,226324558E0;-1,041535854E1;-5,517848969E0
1,249175458E2;4,895116806E0;-8,251648903E0;-3,203391314E0
1,250175458E2;6,853642464E0;-8,541778564E0;-3,961916208E0
1,251175458E2;3,887738705E0;-7,500302792E0;-1,789831281E0
1,252175458E2;6,229713917E0;-8,440681458E0;-3,210569859E0
1,253175458E2;6,500102520E0;-6,484549522E0;-3,859024763E0
1,254175458E2;3,892524242E0;-2,152343988E0;-2,679961443E0
1,255175458E2;5,564508915E0;-7,214360237E-1;-3,028116941E0
1,256175458E2;5,270191669E0;-3,431905985E0;-3,294318676E0
1,257175458E2;6,720242500E0;-1,270050430E1;-5,116453171E0
1,258175458E2;6,235695839E0;-8,388637543E0;-2,895315409E0
1,259175458E2;5,534598827E0;-9,467801094E0;-2,976073265E0
1,260175458E2;4,220939159E0;-9,260223389E0;-2,414956331E0
1,261175458E2;8,553742409E0;-9,305088997E0;-4,311268330E0
1,262175458E2;6,983452797E0;-7,021738052E0;-3,351148129E0
1,263175458E2;3,911666870E0;-4,193421841E0;-3,905086517E0
1,264175458E2;4,107280254E0;-3,458226919E0;-3,329612732E0
1,265175458E2;6,344569206E0;-3,974478483E0;-3,457030535E0
1,266175458E2;5,197809219E0;-8,056633949E0;-2,980260611E0
1,267175458E2;8,574081421E0;-1,172423267E1;-5,062016487E0
1,268175458E2;6,516852379E0;-1,293380451E1;-5,602794170E0
1,269175458E2;2,011765718E0;-7,384250641E0;7,603194118E-1
1,270175458E2;8,114061356E0;-1,031904793E1;-3,599403381E0
1,271175458E2;5,684150219E0;-6,790232658E0;-2,933600664E0
1,272175458E2;5,159523964E0;-5,313860893E0;-4,777868748E0
1,273175458E2;3,719044685E0;-1,433898926E0;-3,451646566E0
1,274175458E2;5,574678421E0;-3,403192043E0;-3,681955814E0
1,275175458E2;5,029713154E0;-7,390232563E0;-3,661018610E0
1,276175458E2;6,531209469E0;-9,722636223E0;-3,741178274E0
1,277175458E2;6,416353703E0;-1,080538845E1;-5,729613781E0
1,278175458E2;4,742574692E0;-7,571488857E0;-3,526422262E0
1,279175458E2;6,707081795E0;-9,622138023E0;-4,019343853E0
1,280175458E2;6,195017815E0;-7,468597889E0;-4,255635262E0
1,281175458E2;6,793821812E0;-6,656234264E0;-4,580460548E0
1,282175458E2;2,675175667E0;-1,533799291E0;-2,197209358E0
1,283175458E2;4,711467743E0;-2,899502754E0;-3,352344513E0
1,284175458E2;7,817949772E0;-5,749354839E0;-5,044668198E0
1,285175458E2;6,004190445E0;-6,704091072E0;-3,221337557E0
1,286175458E2;6,727420807E0;-9,732208252E0;-3,751347780E0
1,287175458E2;6,626922131E0;-8,435297966E0;-4,616353035E0
1,288175458E2;5,459224701E0;-9,659226418E0;-2,545365095E0
1,289175458E2;6,161518097E0;-8,229515076E0;-3,770490170E0
1,290175458E2;5,609374523E0;-6,702894211E0;-3,846462488E0
1,291175458E2;3,683152199E0;-3,079562664E0;-3,115455151E0
1,292175458E2;2,854637384E0;-5,282155871E-1;-3,687339783E0
1,293175458E2;6,881757736E0;-4,959722996E0;-3,812962770E0
1,294175458E2;4,514060020E0;-6,138786316E0;-1,552941918E0
1,295175458E2;6,012565136E0;-1,107039356E1;-3,329612732E0
1,296175458E2;6,885347366E0;-8,547162056E0;-3,130410194E0
1,297175458E2;4,006781578E0;-8,369495392E0;-2,761915445E0
1,298175458E2;7,763513088E0;-8,199007034E0;-3,970290899E0
1,299175458E2;6,698707104E0;-7,168298244E0;-4,043272018E0
1,300175458E2;6,096911907E0;-5,712863922E0;-4,764110088E0
1,301175458E2;3,579662561E0;-2,075175524E0;-3,186043262E0
1,302175458E2;5,935994625E0;-3,699902058E0;-4,155136585E0
1,303175458E2;5,794818401E0;-7,789236069E0;-3,470191002E0
1,304175458E2;8,046463966E0;-1,150349522E1;-4,335196495E0
1,305175458E2;5,045266628E0;-9,013762474E0;-6,306882381E0
1,306175458E2;4,691727161E0;-9,851848602E0;-4,234099865E0
1,307175458E2;4,931607246E0;-8,391031265E0;-2,333600283E0
1,308175458E2;5,348556995E0;-6,902096748E0;-4,438087940E0
1,309175458E2;6,134000778E0;-7,712665558E0;-3,791427374E0
1,310175458E2;2,871387243E0;-1,117448211E0;-2,571686029E0
1,311175458E2;4,905884743E0;-1,463809252E0;-4,706083775E0
1,312175458E2;4,201796532E0;-5,026124001E0;-3,883551121E0
1,313175458E2;5,260022163E0;-1,101236820E1;-2,458625317E0
1,314175458E2;8,161319733E0;-9,415757179E0;-3,072384357E0
1,315175458E2;5,961119175E0;-9,582057953E0;-3,936791420E0
1,316175458E2;4,526023865E0;-8,638090134E0;-3,196810961E0
1,317175458E2;8,255836487E0;-9,027522087E0;-3,580859184E0
1,318175458E2;6,189035892E0;-6,795018196E0;-3,652045488E0
1,319175458E2;4,707280159E0;-4,487140656E0;-3,385245800E0
1,320175458E2;2,559721947E0;-2,891128063E0;-2,884547710E0
1,321175458E2;3,629313707E0;-3,290729284E0;-1,992024899E0
1,322175458E2;6,457031727E0;-1,100698376E1;-4,893322468E0
1,323175458E2;6,946962357E0;-1,137129116E1;-5,385047436E0
1,324175458E2;6,914061069E0;-8,646464348E0;-4,381856441E0
1,325175458E2;9,504291534E0;-1,292722416E1;-3,759722471E0
1,326175458E2;7,978269100E0;-1,068275642E1;-2,589632273E0
1,327175458E2;4,901099205E0;-5,300102234E0;-3,583251953E0
1,328175458E2;2,044068813E0;-1,002592683E0;-1,165902853E0
1,329175458E2;5,362315655E0;-4,441677094E0;-2,244467735E0
1,330175458E2;6,495915413E0;-1,127557850E1;-4,581656933E0
1,331175458E2;6,882356167E0;-9,449256897E0;-4,713262558E0
1,332175458E2;6,646663189E0;-8,079365730E0;-1,980060697E0
1,333175458E2;6,440880299E0;-9,966106415E0;-3,391826153E0
1,334175458E2;7,214958668E0;-9,068199158E0;-4,256831646E0
1,335175458E2;4,473381996E0;-5,916254044E0;-3,728017569E0
1,336175458E2;3,413361549E0;-1,299302697E0;-3,394218922E0
1,337175458E2;3,539582968E0;-3,039483070E0;-4,386641979E0
1,338175458E2;6,562914371E0;-1,054457092E1;-3,719642878E0
1,339175458E2;7,261618614E0;-8,647661209E0;-3,656831264E0
1,340175458E2;1,210349560E1;-9,570094109E0;-4,403990269E0
1,341175458E2;5,790630817E0;-8,042277336E0;-3,321835995E0
1,342175458E2;5,950351715E0;-6,992425919E0;-6,039484501E0
1,343175458E2;4,110270977E0;-5,657230854E0;-3,665804386E0
1,344175458E2;4,431507587E0;-3,275774240E0;-3,833301783E0
1,345175458E2;4,337589264E0;-2,668595552E0;-3,616153240E0
1,346175458E2;6,342774391E0;-9,015557289E0;-2,071586132E0
1,347175458E2;7,659425259E0;-1,091067314E1;-3,300300598E0
1,348175458E2;7,010372162E0;-7,344171047E0;-1,047458172E0
1,349175458E2;6,933801651E0;-8,895318031E0;-4,109074593E0
1,350175458E2;8,685347557E0;-9,381061554E0;-5,028516769E0
1,351175458E2;5,207978249E0;-5,075775146E0;-3,617947817E0
1,352175458E2;6,066403389E0;-4,489533424E0;-3,421736479E0
1,353175458E2;2,170888424E0;-8,428717852E-1;-3,360121250E0
1,354175458E2;6,943971157E0;-7,065407276E0;-2,414956331E0
1,355175458E2;5,903093338E0;-9,823733330E0;-1,413560033E0
1,356175458E2;6,509674072E0;-8,376075745E0;-5,338387489E0
1,357175458E2;4,147359848E0;-8,297112465E0;-3,656233072E0
1,358175458E2;7,487142086E0;-9,772886276E0;-2,639881611E0
1,359175458E2;6,427121639E0;-8,752346992E0;-2,770888567E0
1,360175458E2;4,088137627E0;-5,050052166E0;-3,577867985E0
1,361175458E2;1,817947030E0;-2,177468538E0;-2,097907305E0
1,362175458E2;5,009374142E0;-4,864010334E0;-4,373481750E0
1,363175458E2;6,297909260E0;-7,756334782E0;-3,443271875E0
1,364175458E2;7,706085205E0;-9,991828918E0;-4,197608948E0
1,365175458E2;6,641279221E0;-9,254839897E0;-2,659024239E0
1,366175458E2;4,390231133E0;-8,949156761E0;-2,168495417E0
1,367175458E2;7,255636692E0;-7,551149845E0;-4,712066174E0
1,368175458E2;7,293921471E0;-6,102894306E0;-4,339982033E0
1,369175458E2;1,473978758E0;-1,334596872E0;-2,453839540E0
1,370175458E2;4,837090969E0;-1,521835208E0;-3,884149313E0
1,371175458E2;6,583851337E0;-8,804390907E0;-2,976671457E0
1,372175458E2;6,780661106E0;-9,874580383E0;-4,831707001E0
1,373175458E2;5,845665932E0;-8,890532494E0;-1,990230203E0
1,374175458E2;3,072384357E0;-7,392027378E0;-2,376671076E0
1,375175458E2;7,612166882E0;-9,642477036E0;-3,959523201E0
1,376175458E2;6,879963398E0;-7,584649563E0;-4,071387768E0
1,377175458E2;3,932005882E0;-4,264608383E0;-3,733401537E0
1,378175458E2;4,108476639E0;-1,454237938E0;-3,013161898E0
1,379175458E2;6,193223000E0;-5,631507874E0;-4,660022259E0
1,380175458E2;5,836094379E0;-8,907880783E0;-3,413959742E0
1,381175458E2;8,041678429E0;-9,414560318E0;-3,034697294E0
1,382175458E2;6,813562393E0;-8,799007416E0;-4,324428558E0
1,383175458E2;5,093721390E0;-9,395418167E0;-1,977069736E0
1,384175458E2;6,041278839E0;-7,204190731E0;-4,615755081E0
1,385175458E2;6,622136593E0;-5,896512985E0;-3,708875179E0
1,386175458E2;2,252842426E0;-1,488933921E0;-2,770290375E0
1,387175458E2;4,654638290E0;-3,519842148E0;-4,062414646E0
1,388175458E2;5,716453075E0;-8,955737114E0;-3,313461065E0
1,389175458E2;6,851847649E0;-1,009890842E1;-4,869394302E0
1,390175458E2;6,634698868E0;-1,047876835E1;-2,464009047E0
1,391175458E2;-2,039881229E0;-5,575874805E0;-2,422732860E-1
1,392175458E2;8,550751686E0;-1,011326504E1;-3,454039574E0
1,393175458E2;6,964908600E0;-7,981259823E0;-4,150949001E0
1,394175458E2;3,753740549E0;-3,762713671E0;-2,989831924E0
1,395175458E2;4,988437176E0;-3,130410194E0;-2,129612207E0
1,396175458E2;5,097908497E0;-4,028914928E0;-2,915056229E0
1,397175458E2;5,218147755E0;-1,019820976E1;-2,767897606E0
1,398175458E2;7,518846989E0;-9,379266739E0;-3,521038532E0
1,399175458E2;6,872186661E0;-8,922237396E0;-5,346762180E0
1,400175458E2;5,593223095E0;-9,601201057E0;-2,555534601E0
1,401175458E2;5,858826160E0;-8,323433876E0;-4,095315933E0
1,402175458E2;4,738387108E0;-6,103492260E0;-3,102294445E0
1,403175458E2;2,283350945E0;-3,545564890E0;-2,160718918E0
1,404175458E2;5,842076302E0;-3,083152056E0;-2,839084148E0
1,405175458E2;6,424728870E0;-7,484150887E0;-2,986242771E0
1,406175458E2;6,067001820E0;-1,106381416E1;-4,304687977E0
1,407175458E2;6,220142365E0;-8,319844246E0;-3,493520975E0
1,408175458E2;5,849255085E0;-8,447860718E0;-4,118646145E0
1,409175458E2;7,789236069E0;-8,806783676E0;-3,156133175E0
1,410175458E2;8,021339417E0;-5,068596363E0;-2,248056889E0
1,411175458E2;5,170291424E0;-4,418346882E0;-5,303092957E0
1,412175458E2;-1,509871125E0;3,735196114E0;-1,449452281E0
1,413175458E2;5,033900738E0;-5,449055195E0;-2,613560438E0
1,414175458E2;7,391428947E0;-1,039442158E1;-2,398804665E0
1,415175458E2;7,659425259E0;-7,966903210E0;-5,270790100E0
1,416175458E2;6,197410583E0;-9,841081619E0;-3,454637766E0
1,417175458E2;5,496313572E0;-9,758528709E0;-2,903690338E0
1,418175458E2;7,030112743E0;-9,855438232E0;-4,822733879E0
1,419175458E2;5,371886730E0;-6,371488571E0;-3,757329702E0
1,420175458E2;3,716053486E0;-4,131208420E0;-2,572284460E0
1,421175458E2;4,087539196E0;-1,505683661E0;-3,605983734E0
1,422175458E2;5,138586521E0;-5,859424591E0;-3,783052683E0
1,423175458E2;6,449255466E0;-1,119362450E1;-4,429712772E0
1,424175458E2;6,151947021E0;-7,218547821E0;-4,515854359E0
1,425175458E2;6,655636311E0;-9,013164520E0;-4,371686935E0
1,426175458E2;6,929614544E0;-9,470791817E0;-2,267797709E0
1,427175458E2;6,081358910E0;-8,410771370E0;-3,445664644E0
1,428175458E2;4,326223373E0;-6,006583214E0;-3,455834150E0
1,429175458E2;2,859423161E0;-5,198407173E0;-4,636094093E0
1,430175458E2;6,282954216E0;-1,225723386E0;-1,293918848E0
1,431175458E2;8,906085968E0;-1,424507141E1;-4,351946354E0
1,432175458E2;6,559923172E0;-4,920839787E0;-2,991626501E0
1,433175458E2;6,911668301E0;-1,067378330E1;-3,815953970E0
1,434175458E2;4,028316975E0;-9,483354568E0;-2,691327333E0
1,435175458E2;8,236095428E0;-9,160323143E0;-3,857828379E0
1,436175458E2;9,448657990E0;-7,140780926E0;-3,237488985E0
1,437175458E2;5,118845940E0;-3,589233875E0;-2,806781054E0
1,438175458E2;1,148554921E0;-2,032104731E0;-2,169093609E0
1,439175458E2;6,645466805E0;-4,878366947E0;-3,168695450E0
1,440175458E2;6,085546017E0;-8,343772888E0;-3,507878065E0
1,441175458E2;7,163512707E0;-1,007737255E1;-3,436691523E0
1,442175458E2;6,976872444E0;-9,358927727E0;-3,802195072E0
1,443175458E2;4,443471432E0;-9,426525116E0;-3,012563705E0
1,444175458E2;6,606583118E0;-8,478368759E0;-3,709473372E0
1,445175458E2;6,185446739E0;-6,861418724E0;-3,394218922E0
1,446175458E2;2,629113913E0;-3,675973892E0;-1,778465390E0
1,447175458E2;2,653042078E0;-2,999403238E0;-3,573082447E0
1,448175458E2;5,949155331E0;-7,511070251E0;-3,544368505E0
1,449175458E2;6,492326260E0;-1,067258739E1;-4,603192329E0
1,450175458E2;5,564508915E0;-9,442078590E0;-4,042674065E0
1,451175458E2;6,943373203E0;-7,900502205E0;-3,544966698E0
1,452175458E2;5,927619934E0;-9,333803177E0;-2,934797049E0
1,453175458E2;6,021538258E0;-7,669594765E0;-3,218944550E0
1,454175458E2;4,733003139E0;-5,744568825E0;-3,504886866E0
1,455175458E2;3,999004841E0;-2,490330219E0;-3,620938778E0
1,456175458E2;4,495515347E0;-3,635295868E0;-2,986840963E0
1,457175458E2;6,073582172E0;-8,755936623E0;-2,645863533E0
1,458175458E2;6,838686943E0;-9,759127617E0;-4,832305431E0
1,459175458E2;6,324230194E0;-9,806983948E0;-4,156930923E0
1,460175458E2;5,827719688E0;-9,208179474E0;-4,220340729E0
1,461175458E2;8,017151833E0;-9,227322578E0;-3,422334671E0
1,462175458E2;6,073582172E0;-7,086942673E0;-2,456232548E0
1,463175458E2;6,358327866E0;-6,014957905E0;-3,756133318E0
1,464175458E2;2,399402857E0;-1,815554142E0;-1,722832322E0
1,465175458E2;6,209972858E0;-4,685744762E0;-3,306880951E0
1,466175458E2;6,952944279E0;-8,767302513E0;-2,852842808E0
1,467175458E2;6,914061069E0;-9,601201057E0;-5,196612358E0
1,468175458E2;7,360920429E0;-1,071924686E1;-2,583650351E0
1,469175458E2;5,448457241E0;-9,045467377E0;-3,322434187E0
1,470175458E2;8,495118141E0;-9,113663673E0;-3,710669756E0
1,471175458E2;5,959324837E0;-5,952744484E0;-2,919243574E0
1,472175458E2;6,057430744E0;-4,743172646E0;-3,148356438E0
1,473175458E2;4,748556614E0;-6,059823632E-1;-1,250249863E0
1,474175458E2;6,315257072E0;-5,699105263E0;-4,015156269E0
1,475175458E2;6,641877651E0;-8,056633949E0;-4,809573650E0
1,476175458E2;6,183053493E0;-8,090731621E0;-3,169891834E0
1,477175458E2;6,127420425E0;-8,883952141E0;-3,524627686E0
1,478175458E2;4,596014023E0;-1,001994514E1;-2,834298372E0
1,479175458E2;7,037889481E0;-9,304491043E0;-5,556134224E0
1,480175458E2;5,541777134E0;-5,163113117E0;-2,567498684E0
1,481175458E2;3,324228764E0;-2,333002090E0;-2,368296146E0
1,482175458E2;2,772683144E0;-3,393620729E0;-1,999801517E0
1,483175458E2;3,483351469E0;-6,130411625E0;-2,163111687E0
1,484175458E2;6,583851337E0;-1,156750298E1;-3,873979807E0
1,485175458E2;5,718247890E0;-9,671191216E0;-5,006981373E0
1,486175458E2;6,730412006E0;-8,773882866E0;-4,898108006E0
1,487175458E2;5,852245808E0;-9,008976936E0;-2,811566591E0
1,488175458E2;6,900900364E0;-8,550153732E0;-4,197010994E0
1,489175458E2;6,174678802E0;-6,354140759E0;-4,093521118E0
1,490175458E2;1,961516380E0;-4,996213913E0;-4,304687977E0
1,491175458E2;5,859424591E0;-3,566502094E0;-3,047259569E0
1,492175458E2;8,274380684E0;-9,559326172E0;-2,179263115E0
1,493175458E2;7,306483746E0;-9,784252167E0;-4,952544689E0
1,494175458E2;5,186442852E0;-9,178269386E0;-4,180859566E0
1,495175458E2;5,493322372E0;-8,920442581E0;-4,144368649E0
1,496175458E2;6,966702938E0;-9,101698875E0;-2,904288530E0
1,497175458E2;5,795416355E0;-7,187440872E0;-2,407179594E0
1,498175458E2;5,368896008E0;-5,195415974E0;-4,076771736E0
1,499175458E2;3,046063185E0;-2,801397085E0;-2,222334146E0
1,500175458E2;5,896512985E0;-2,944368362E0;-3,704089403E0
1,501175458E2;6,196812630E0;-8,775078773E0;-2,965903759E0
1,502175458E2;7,651050568E0;-1,082512951E1;-2,951546669E0
1,503175458E2;5,124229908E0;-1,100937653E1;-4,393820763E0
1,504175458E2;4,033700943E0;-1,007557774E1;-3,520440340E0
1,505175458E2;9,209376335E0;-9,074181557E0;-1,795813441E0
1,506175458E2;6,802794933E0;-7,317849636E0;-2,949153900E0
1,507175458E2;4,469792843E0;-4,729413986E0;-4,196412563E0
1,508175458E2;2,171486616E0;-2,563909531E0;-3,377469063E0
1,509175458E2;5,301896572E0;-2,476571321E0;-1,750349760E0
1,510175458E2;7,213163853E0;-1,124925709E1;-3,388834953E0
1,511175458E2;9,196215630E0;-8,294121742E0;-2,014158487E0
1,512175458E2;5,504688263E0;-1,098724365E1;-3,562912941E0
1,513175458E2;3,553939819E0;-7,408178806E0;-1,666002750E0
1,514175458E2;7,961519241E0;-9,456435204E0;-4,071387768E0
1,515175458E2;7,314260483E0;-6,748956203E0;-3,511467218E0
1,516175458E2;3,033500910E0;-3,738187075E0;-2,438286304E0
1,517175458E2;3,004786968E0;-2,739781857E0;-1,721037745E0
1,518175458E2;5,335396290E0;-4,454837322E0;-3,133401155E0
1,519175458E2;6,259026051E0;-9,879366875E0;-3,573680639E0
1,520175458E2;8,804988861E0;-9,607182503E0;-3,513261795E0
1,521175458E2;7,232306480E0;-9,020941734E0;-3,531208038E0
1,522175458E2;3,667598963E0;-7,885547161E0;-2,863610506E0
1,523175458E2;6,069394588E0;-8,461619377E0;-5,279763222E0
1,524175458E2;5,998208046E0;-6,751348972E0;-3,594617844E0
1,525175458E2;3,200400352E0;-3,652643681E0;-2,553740025E0
1,526175458E2;4,066602230E0;-2,099103689E0;-3,502494097E0
1,527175458E2;6,380461693E0;-7,670791149E0;-3,180659533E0
1,528175458E2;5,676971912E0;-8,393424034E0;-1,384846091E0
1,529175458E2;9,747162819E0;-1,492941856E1;-5,468796253E0
1,530175458E2;6,163312912E0;-9,807581902E0;-3,554538012E0
1,531175458E2;4,575675011E0;-8,290532112E0;-1,612164259E0
1,532175458E2;5,216353416E0;-8,685946465E0;-4,211368084E0
1,533175458E2;6,854838848E0;-6,690930367E0;-3,534198999E0
1,534175458E2;2,852842808E0;-3,006581545E0;-2,450250387E0
1,535175458E2;1,618744493E0;-6,376872063E-1;-1,290927768E0
1,536175458E2;6,646064758E0;-1,011924744E1;-3,501895905E0
1,537175458E2;6,292525291E0;-8,213961601E0;-4,578666210E0
1,538175458E2;5,512465000E0;-9,858428955E0;-3,595814228E0
1,539175458E2;5,526223660E0;-8,979664803E0;-2,911466837E0
1,540175458E2;6,222535133E0;-9,300901413E0;-3,418147087E0
1,541175458E2;6,488736629E0;-8,110472679E0;-3,360719442E0
1,542175458E2;3,367897987E0;-5,854638577E0;-5,197809219E0
1,543175458E2;6,015556335E0;-6,800402164E0;-2,619542599E0
1,544175458E2;4,737190723E0;3,511467278E-1;-2,227717876E0
1,545175458E2;4,875376225E0;-1,379761314E1;-3,890131474E0
1,546175458E2;9,310472488E0;-7,740182877E0;-6,560521603E0
1,547175458E2;6,191428661E0;-8,976076126E0;-2,955734253E0
1,548175458E2;6,041877270E0;-8,731410027E0;-3,453441381E0
1,549175458E2;8,178668022E0;-8,706883430E0;-3,940380573E0
1,550175458E2;4,906482697E0;-4,979464054E0;-3,680161238E0
1,551175458E2;2,249851465E0;-1,671386600E0;-2,148156643E0
1,552175458E2;5,799005508E0;-3,385245800E0;-2,646461725E0
1,553175458E2;4,810770035E0;-1,033460140E1;-4,104289055E0
1,554175458E2;7,819744587E0;-1,036929703E1;-4,348955154E0
1,555175458E2;8,213961601E0;-7,234699249E0;-3,148356438E0
1,556175458E2;5,836692810E0;-1,040459061E1;-3,532404423E0
1,557175458E2;2,350948334E0;-5,854638577E0;-3,222533941E0
1,558175458E2;4,950151920E0;-5,734399319E0;-4,355535507E0
1,559175458E2;1,649851203E0;-1,838884234E0;-1,085743308E0
1,560175458E2;5,292923450E0;-6,741179466E0;-2,761915445E0
1,561175458E2;7,488936901E0;-1,145862961E1;-5,089533806E0
1,562175458E2;8,022536278E0;-1,156869888E1;-5,692524910E0
1,563175458E2;5,924628735E0;-9,442078590E0;-5,070391178E0
1,564175458E2;7,557132244E0;-9,370293617E0;-3,487539053E0
1,565175458E2;5,857031822E0;-8,510073662E0;-4,505086899E0
1,566175458E2;2,270788670E0;-2,834896564E0;-7,585247755E-1
1,567175458E2;3,376272678E0;-2,888136864E0;-2,093719721E0
1,568175458E2;5,274379253E0;-6,990033150E0;-2,416750908E0
1,569175458E2;6,623931408E0;-1,068156052E1;-5,425725460E0
1,570175458E2;6,832705021E0;-9,311071396E0;-3,992424488E0
1,571175458E2;4,116253376E0;-8,426922798E0;-2,867199659E0
1,572175458E2;8,201399803E0;-1,034118080E1;-4,569693089E0
1,573175458E2;6,052046776E0;-6,713662148E0;-3,308077335E0
1,574175458E2;8,237292171E-1;-1,151545882E0;-2,586641312E0
1,575175458E2;4,502694130E0;-3,224926710E0;-2,715853691E0
1,576175458E2;5,582455158E0;-1,058704376E1;-2,264806747E0
1,577175458E2;7,443472862E0;-9,885947227E0;-4,111467361E0
1,578175458E2;9,181859016E0;-9,422337532E0;-2,721835852E0
1,579175458E2;4,451846600E0;-9,446864128E0;-2,027917147E0
1,580175458E2;9,638289452E0;-1,007198906E1;-4,359124660E0
1,581175458E2;4,686343193E0;-5,849853039E0;-3,141177893E0
1,582175458E2;1,724626899E0;-1,630708575E0;-3,179463148E0
1,583175458E2;5,472385406E0;-4,804189682E0;-3,452244759E0
1,584175458E2;5,845665932E0;-1,115533924E1;-3,285943747E0
1,585175458E2;8,318049431E0;-9,477372169E0;-3,369094372E0
1,586175458E2;7,353144169E0;-7,898109436E0;-2,527418852E0
1,587175458E2;5,837290764E0;-1,002353382E1;-2,325225353E0
1,588175458E2;5,738586903E0;-8,190631866E0;-2,924029350E0
1,589175458E2;4,539184570E0;-4,679164886E0;-2,118246317E0
1,590175458E2;1,741376638E0;-2,703291416E0;-1,756331801E0
1,591175458E2;5,746961594E0;-6,100501537E0;-3,391227961E0
1,592175458E2;7,256234646E0;-1,087597752E1;-3,629313707E0
1,593175458E2;7,288537979E0;-9,656833649E0;-3,543172121E0
1,594175458E2;5,047659397E0;-8,657830238E0;-3,212364435E0
1,595175458E2;8,020143509E0;-9,686744690E0;-3,587439299E0
1,596175458E2;7,149754047E0;-5,754140377E0;-3,443271875E0
1,597175458E2;4,056432724E0;-3,558127165E0;-2,857030153E0
1,598175458E2;-1,613958836E0;-1,822134495E0;-1,432104349E0
1,599175458E2;6,805187702E0;-1,302353573E1;-2,526222467E0
1,600175458E2;9,876375198E0;-1,003848934E1;-4,789234638E0
1,601175458E2;4,421338081E0;-7,980063438E0;-9,152546525E-1
1,602175458E2;4,756333351E0;-9,303294182E0;-2,598007202E0
1,603175458E2;1,036510944E1;-1,038784122E1;-5,635097504E0
1,604175458E2;4,850849628E0;-5,171487808E0;-3,034099102E0
1,605175458E2;3,020340443E0;-2,968296528E0;-2,489133835E0
1,606175458E2;3,787838221E0;-3,257229805E0;-1,926222205E0
1,607175458E2;7,226324558E0;-1,128694439E1;-3,737588882E0
1,608175458E2;1,085623646E1;-1,097827053E1;-4,353740692E0
1,609175458E2;7,134200573E0;-7,457829952E0;-2,509472847E0
1,610175458E2;5,431707382E0;-1,016650486E1;-1,927418590E0
1,611175458E2;7,027719975E0;-8,422137260E0;-3,595216036E0
1,612175458E2;4,033700943E0;-3,358924866E0;-1,213759303E0
1,613175458E2;1,046261668E0;-1,956730723E0;-1,394417405E0
1,614175458E2;3,670589924E0;-5,584249973E0;-3,622733593E0
1,615175458E2;6,999006271E0;-1,113260746E1;-4,622334957E0
1,616175458E2;8,871390343E0;-7,986045361E0;-3,533600807E0
1,617175458E2;5,301896572E0;-8,477770805E0;-1,856830359E0
1,618175458E2;7,902894974E0;-1,028853893E1;-3,872185230E0
1,619175458E2;4,974678040E0;-6,142973900E0;-2,577069998E0
1,620175458E2;3,993022680E0;-3,779463291E0;-1,680957913E0
1,621175458E2;2,927020311E0;-1,482353687E0;-1,443470240E0
1,622175458E2;5,737988472E0;-9,008976936E0;-2,562713146E0
1,623175458E2;7,710870743E0;-1,078086281E1;-3,774079561E0
1,624175458E2;8,986245155E0;-9,608977318E0;-2,367099762E0
1,625175458E2;4,163511276E0;-9,918250084E0;-3,445066452E0
1,626175458E2;7,073183537E0;-6,947560310E0;-5,196612358E0
1,627175458E2;7,372884750E0;-7,040282249E0;-4,274777889E0
1,628175458E2;2,073380709E0;-2,048854351E0;-1,649851203E0
1,629175458E2;4,293920040E0;-1,660020709E0;-3,261417150E0
1,630175458E2;7,298707485E0;-1,034177971E1;-2,771486759E0
1,631175458E2;8,618947029E0;-1,182951736E1;-4,655834675E0
1,632175458E2;7,270591736E0;-9,915258408E0;-2,964108944E0
1,633175458E2;4,444668293E0;-9,680762291E0;-2,490928411E0
1,634175458E2;7,821538925E0;-8,438288689E0;-3,730410576E0
1,635175458E2;5,560321808E0;-5,760720730E0;-3,635295868E0
1,636175458E2;2,826521635E0;-1,630110383E0;-1,447059512E0
1,637175458E2;4,954937458E0;-3,622135162E0;-3,049652576E0
1,638175458E2;5,308476925E0;-1,092443180E1;-3,729812384E0
1,639175458E2;1,016590691E1;-1,045184898E1;-3,718446493E0
1,640175458E2;6,448656917E-1;-5,902495384E0;1,268195957E-1
1,641175458E2;3,571886063E0;-9,675378799E0;-1,657029629E0
1,642175458E2;4,360919476E0;-9,000602722E0;-3,649054527E0
1,643175458E2;5,496313572E0;-5,327021599E0;-1,634896040E0
1,644175458E2;1,993221283E0;3,690928817E-1;-2,967100143E-1
1,645175458E2;6,059225082E0;-6,043073654E0;-4,371088982E0
1,646175458E2;6,114858150E0;-6,575476646E0;-3,136392355E0
1,647175458E2;1,230269718E1;-9,461818695E0;-7,682755470E0
1,648175458E2;6,203990936E0;-8,538787842E0;-5,059623718E0
1,649175458E2;7,935796261E0;-7,100701332E0;-7,443472862E0
1,650175458E2;7,780262947E0;-6,233901024E0;-3,346960783E0
1,651175458E2;3,097508907E0;-3,048455954E0;3,732803464E-1
1,652175458E2;1,703689694E0;7,806583643E-1;1,184447184E-1
1,653175458E2;2,760120869E0;-1,500838184E1;-8,496912956E0
1,654175458E2;1,092861938E1;-9,830313683E0;-4,864010334E0
1,655175458E2;7,932207108E0;-1,112064362E1;-4,360321045E0
1,656175458E2;5,048855782E0;-9,169296265E0;-3,841078520E0
1,657175458E2;8,776275635E0;-9,985847473E0;-3,267399311E0
1,658175458E2;6,376274109E0;-7,216753006E0;-3,187239647E0
1,659175458E2;1,613360643E0;-2,769692183E0;-2,711068153E0
1,660175458E2;5,879763603E0;-4,135395527E0;-3,684946775E0
1,661175458E2;6,094519138E0;-7,011568546E0;-1,853839397E0
1,662175458E2;8,581858635E0;-1,092562866E1;-4,874179840E0
1,663175458E2;6,577271461E0;-8,537590981E0;-2,403590441E0
1,664175458E2;4,088137627E0;-8,400003433E0;-1,271187067E0
1,665175458E2;1,050150013E1;-8,677571297E0;-4,676173687E0
1,666175458E2;4,724628448E0;-6,279963017E0;-4,142574310E0
1,667175458E2;3,218346536E-1;-1,576870084E0;-1,972284079E0
1,668175458E2;5,701498032E0;-4,341776848E0;-2,489133835E0
1,669175458E2;5,038686275E0;-1,067797089E1;-1,579861164E0
1,670175458E2;9,851848602E0;-1,112004471E1;-4,178466320E0
1,671175458E2;5,477769375E0;-8,076375008E0;-2,292922258E0
1,672175458E2;6,171687603E0;-9,148359299E0;-2,983251572E0
1,673175458E2;7,586444378E0;-9,538987160E0;-3,113660574E0
1,674175458E2;4,050450325E0;-5,012963295E0;-2,163111687E0
1,675175458E2;1,165304661E0;-3,405584812E0;-1,832902193E0
1,676175458E2;6,052046776E0;-6,015556335E0;-3,597010612E0
1,677175458E2;5,816951752E0;-1,029392338E1;-4,922634602E0
1,678175458E2;7,243672371E0;-8,543573380E0;-3,183650494E0
1,679175458E2;6,521637917E0;-7,931010723E0;-2,085345030E0
1,680175458E2;6,004190445E0;-9,588638306E0;-2,526820660E0
1,681175458E2;6,039484501E0;-7,153343201E0;-3,692723513E0
1,682175458E2;3,974478483E0;-4,100699902E0;-1,210768223E0
1,683175458E2;6,233302951E-1;-1,955534339E0;-1,818545222E0
1,684175458E2;6,464808464E0;-7,069594383E0;-2,537588358E0
1,685175458E2;7,255636692E0;-8,834300995E0;-3,799204111E0
1,686175458E2;7,967501163E0;-9,294919968E0;-3,745963812E0
1,687175458E2;4,377668858E0;-8,513663292E0;-3,201596737E0
1,688175458E2;8,692526817E0;-1,078445148E1;-3,378665686E0
1,689175458E2;6,196214199E0;-5,137988567E0;-1,426122308E0
1,690175458E2;3,670589924E0;-2,652443886E0;-2,991028316E-2
1,691175458E2;3,101098061E0;-3,463610709E-1;-3,768695593E-1
1,692175458E2;3,549752474E0;-5,595615864E0;-2,532204628E0
1,693175458E2;1,552762413E1;-1,674796295E1;-2,653640270E0
1,694175458E2;7,021738052E0;-8,501100540E0;-6,556932449E0
1,695175458E2;2,712862730E0;-8,787641525E0;-3,000599623E0
1,696175458E2;9,128020287E0;-9,424730301E0;-5,649454117E0
1,697175458E2;5,898307800E0;-5,997011662E0;-2,554936409E0
1,698175458E2;1,603191137E0;-2,286342144E0;-3,151945591E0
1,699175458E2;9,206385016E-1;-4,474578381E0;-3,906881094E0
1,700175458E2;6,350551128E0;-1,016471100E1;-1,674975872E0
1,701175458E2;9,863813400E0;-1,147896862E1;-4,467998028E0
1,702175458E2;5,967699528E0;-9,246464729E0;-9,415757060E-1
1,703175458E2;2,830111027E0;-9,578469276E0;-1,693520188E0
1,704175458E2;8,725427628E0;-9,713663101E0;-2,871387243E0
1,705175458E2;5,133202553E0;-5,890531063E0;-2,467598438E0
1,706175458E2;3,080759048E0;-2,745165825E0;-1,667199135E0
1,707175458E2;3,372683525E0;-2,204986095E0;-2,114058733E0
1,708175458E2;5,913861275E0;-1,224826050E1;-2,057827473E0
1,709175458E2;9,422337532E0;-9,987641335E0;-3,206382275E0
1,710175458E2;6,501897335E0;-8,613563538E0;-3,200400352E0
1,711175458E2;4,035495281E0;-1,011565781E1;-2,874378204E0
1,712175458E2;7,931608677E0;-9,638887405E0;-4,159922123E0
1,713175458E2;4,488337040E0;-4,688735962E0;-2,848057270E0
1,714175458E2;1,648654819E0;-8,913264275E-1;-1,924427629E0
1,715175458E2;5,666802406E0;-5,201996326E0;-3,560520172E0
1,716175458E2;6,129215240E0;-1,050030422E1;-4,573880672E0
1,717175458E2;7,271788120E0;-9,872786522E0;-3,770490170E0
1,718175458E2;6,117849350E0;-8,245666504E0;-2,422134638E0
1,719175458E2;6,486343861E0;-9,045467377E0;-1,841875196E0
1,720175458E2;6,470192432E0;-8,279764175E0;-2,876770973E0
1,721175458E2;4,846662045E0;-4,054039955E0;-2,029113531E0
1,722175458E2;3,661018610E-1;-2,281556368E0;-1,175474167E0
1,723175458E2;6,436692715E0;-6,582056999E0;-2,644068956E0
1,724175458E2;6,379265308E0;-1,063430214E1;-5,443073273E0
1,725175458E2;6,745367050E0;-8,842676163E0;-4,451846600E0
1,726175458E2;6,232704639E0;-9,386445045E0;-4,372285366E0
1,727175458E2;7,980661869E0;-9,971489906E0;-2,213959217E0
1,728175458E2;5,245067120E0;-7,329813957E0;-3,531806231E0
1,729175458E2;1,963310957E0;-4,186243057E0;-2,758326292E0
1,730175458E2;2,980858803E0;-2,490330219E0;-3,082553864E0
1,731175458E2;6,619145870E0;-9,720243454E0;-1,738983870E0
1,732175458E2;8,282156944E0;-1,097049332E1;-2,898904562E0
1,733175458E2;5,629115105E0;-1,085922718E1;-3,644268990E0
1,734175458E2;4,130012035E0;-9,024530411E0;-3,876971006E0
1,735175458E2;8,012965202E0;-1,008933640E1;-3,751945972E0
1,736175458E2;4,969294548E0;-5,109872818E0;-3,239283562E0
1,737175458E2;2,064407825E0;-4,076771736E0;-2,624926329E0
1,738175458E2;4,694119930E0;-2,291127682E0;-3,912265003E-1
1,739175458E2;6,421139717E0;-8,435297966E0;-4,400400639E0
1,740175458E2;7,345965385E0;-8,961120605E0;-2,335993052E0
1,741175458E2;6,439085960E0;-9,987043381E0;-2,406581402E0
1,742175458E2;4,442275047E0;-8,428717613E0;-2,613560438E0
1,743175458E2;8,250452042E0;-9,534201622E0;-4,705485821E0
1,744175458E2;5,714060307E0;-6,177071571E0;-4,254438877E0
1,745175458E2;1,377069473E0;-3,132802963E0;-2,851646423E0
1,746175458E2;5,417350292E0;-4,063013077E0;-4,304687977E0
1,747175458E2;4,462016106E0;-9,810572624E0;-2,756531715E0
1,748175458E2;1,103330517E1;-1,443829155E1;-3,273979664E0
1,749175458E2;6,167500496E0;-9,468997002E0;-3,726821184E0
1,750175458E2;-5,126622319E-1;-9,569496155E0;-3,908077478E0
1,751175458E2;8,755337715E0;-1,058225822E1;-4,977070987E-1
1,752175458E2;5,224130154E0;-1,007378292E1;-8,887541771E0
1,753175458E2;4,025924206E-1;-1,859821439E0;-1,860419631E0
1,754175458E2;6,166902065E0;-4,312464714E0;-6,783652306E-1
1,755175458E2;5,227719307E0;-9,262018204E0;-3,185445070E0
1,756175458E2;9,564111710E0;-1,032443142E1;-6,005386829E0
1,757175458E2;7,182655334E0;-9,409176826E0;-3,566502094E0
1,758175458E2;5,138586521E0;-7,754539967E0;-3,678366661E0
1,759175458E2;8,198408127E0;-8,539385796E0;-5,134399414E0
1,760175458E2;5,654240131E0;-5,584249973E0;-3,993621111E0
1,761175458E2;2,340180635E0;-2,194218397E0;-1,652842283E0
1,762175458E2;5,857031822E0;-4,849653244E0;-2,587239504E0
1,763175458E2;7,874779224E0;-1,262572861E1;-1,959721804E0
1,764175458E2;8,115258217E0;-1,007438183E1;-4,564907551E0
1,765175458E2;6,954140663E0;-8,720044136E0;-3,664009571E0
1,766175458E2;7,384250641E0;-9,114261627E0;-2,182254314E0
1,767175458E2;5,767300606E0;-8,001000404E0;-2,966501951E0
1,768175458E2;3,456432343E0;-3,726821184E0;-1,592423439E0
1,769175458E2;2,630310297E0;4,725824669E-2;-9,834501147E-1
1,770175458E2;6,635297298E0;-7,175477028E0;-2,895315409E0
1,771175458E2;7,750352383E0;-1,286201954E1;-4,453042984E0
1,772175458E2;4,189234257E0;-9,388837814E0;-3,058625460E0
1,773175458E2;1,001815033E1;-1,043210888E1;-4,801198483E0
1,774175458E2;7,960920811E0;-1,012283611E1;-3,641875982E0
1,775175458E2;4,680361271E0;-7,132406235E0;-3,703491211E0
1,776175458E2;3,223730326E0;-4,768895626E0;-1,759921074E0
1,777175458E2;1,433300734E0;-3,653241873E0;-4,140181541E0
1,778175458E2;5,982655048E0;-8,395217896E0;-1,298106313E0
1,779175458E2;7,666005611E0;-1,024128056E1;-4,262215137E0
1,780175458E2;5,146363258E0;-8,936594009E0;-3,291925669E0
1,781175458E2;5,428716183E0;-9,390034676E0;-4,384847641E0
1,782175458E2;8,909674644E0;-9,798608780E0;-4,825725079E0
1,783175458E2;5,520241737E0;-5,794818401E0;-3,877569199E0
1,784175458E2;2,030908108E0;-2,843869686E0;-2,185245275E0
1,785175458E2;4,564907551E0;-2,608774900E0;-2,883949518E0
1,786175458E2;6,404987812E0;-1,121097183E1;-3,094517946E0
1,787175458E2;7,895716667E0;-1,106381416E1;-5,066802025E0
1,788175458E2;5,544768333E0;-8,704490662E0;-1,759322882E0
1,789175458E2;5,082953453E0;-9,897911072E0;-2,948555708E0
1,790175458E2;9,196215630E0;-9,417551994E0;-3,762115479E0
1,791175458E2;5,000401020E0;-5,803791523E0;-3,474976778E0
1,792175458E2;2,808575630E0;-5,024927258E-1;-1,651047587E0
1,793175458E2;5,413761139E0;-3,294318676E0;-3,208176851E0
1,794175458E2;5,225326538E0;-1,054397297E1;-2,884547710E0
1,795175458E2;6,958926678E0;-1,108235836E1;-3,468994617E0
1,796175458E2;6,370890141E0;-9,814760208E0;-2,803191662E0
1,797175458E2;4,447659016E0;-9,534799576E0;-1,567897081E0
1,798175458E2;6,735795975E0;-7,744968891E0;-2,449054003E0
1,799175458E2;4,283750534E0;-5,668596745E0;-3,125026464E0
1,800175458E2;3,050250769E0;-6,699903309E-2;-2,541775942E0
1,801175458E2;5,935396671E0;-4,657629490E0;-3,696312666E0
1,802175458E2;3,448655605E0;-1,060798073E1;-1,891526341E0
1,803175458E2;8,429315567E0;-1,235115242E1;-4,967499733E0
1,804175458E2;6,174678802E0;-8,483752251E0;-3,768695593E0
1,805175458E2;7,279564857E0;-9,123832703E0;-2,134397745E0
1,806175458E2;5,740979671E0;-7,499105930E0;-2,500499725E0
1,807175458E2;4,576871395E0;-4,383651257E0;-2,256431818E0
1,808175458E2;1,811366796E0;-2,699702263E0;-2,075175524E0
1,809175458E2;4,591228485E0;-5,550152302E0;-2,954537868E0
1,810175458E2;7,697710514E0;-1,237149143E1;-2,161317110E0
1,811175458E2;7,411170006E0;-1,098066330E1;-5,458028316E0
1,812175458E2;5,239683151E0;-8,635697365E0;-2,872583628E0
1,813175458E2;6,845267296E0;-9,270393372E0;-2,978466034E0
1,814175458E2;6,621538639E0;-8,146963120E0;-2,126621008E0
1,815175458E2;3,745963812E0;-4,851448059E0;-1,593619823E0
1,816175458E2;5,060819983E-1;-1,443470240E0;-2,650649309E0
1,817175458E2;5,828317642E0;-7,705487251E0;-2,098505497E0
1,818175458E2;7,943572998E0;-1,145264721E1;-3,479164124E0
1,819175458E2;6,912266254E0;-9,857831001E0;-3,999004841E0
1,820175458E2;5,408377171E0;-8,636893272E0;-2,475973129E0
1,821175458E2;6,951747894E0;-9,194420815E0;-2,734996319E0
1,822175458E2;5,578267574E0;-6,189035892E0;-2,065006018E0
1,823175458E2;3,395415306E0;-3,445066452E0;-1,559522152E0
1,824175458E2;3,644268990E0;-1,274178028E0;-1,544566989E0
1,825175458E2;5,791827202E0;-7,934001446E0;-2,770888567E0
1,826175458E2;7,762316704E0;-9,890732765E0;-5,696712494E0
1,827175458E2;6,498906136E0;-9,556335449E0;-3,382853031E0
1,828175458E2;4,886742115E0;-8,650053978E0;-2,551347256E0
1,829175458E2;8,245666504E0;-9,644869804E0;-4,447061062E0
1,830175458E2;7,331608772E0;-6,795018196E0;-2,453839540E0
1,831175458E2;2,160120726E0;-2,886940479E0;-2,075175524E0
1,832175458E2;2,588435888E0;-2,132603168E0;-1,854437590E0
1,833175458E2;6,391229153E0;-8,208578110E0;-2,255235434E0
1,834175458E2;6,527021885E0;-9,819545746E0;-3,315255880E0
1,835175458E2;6,327819347E0;-9,415757179E0;-4,424927235E0
1,836175458E2;4,866403103E0;-9,199805260E0;-2,535195589E0
1,837175458E2;8,863613129E0;-1,067976570E1;-3,588635683E0
1,838175458E2;5,603990555E0;-6,174080849E0;-2,920439959E0
1,839175458E2;3,451048374E0;-3,171686411E0;-2,110469580E0
1,840175458E2;2,495713949E0;-7,106683254E-1;-3,331407309E0
1,841175458E2;5,963512421E0;-8,853444099E0;-2,280359983E0
1,842175458E2;9,151350021E0;-1,326820183E1;-3,016152859E0
1,843175458E2;6,075376511E0;-8,538188934E0;-2,018944025E0
1,844175458E2;5,817550182E0;-9,708877563E0;-2,338984251E0
1,845175458E2;7,308278561E0;-9,327222824E0;-4,560719967E0
1,846175458E2;5,939583778E0;-6,150750637E0;-2,768495798E0
1,847175458E2;2,904288530E0;-3,052045345E0;-1,201795220E0
1,848175458E2;1,663609982E0;-2,795415163E0;-1,878365755E0
1,849175458E2;5,146961689E0;-7,938189030E0;-2,415554523E0
1,850175458E2;7,951947689E0;-1,145264721E1;-3,880560160E0
1,851175458E2;6,994220734E0;-1,049013424E1;-3,308675528E0
1,852175458E2;3,932604074E0;-8,132007599E0;-2,015953064E0
1,853175458E2;9,296713829E0;-1,125464153E1;-3,836292982E0
1,854175458E2;5,997011662E0;-5,099104881E0;-2,165504456E0
1,855175458E2;3,521038532E0;-3,123830080E0;-2,612364054E0
1,856175458E2;3,196212769E0;-1,090528965E0;-2,523829699E0
1,857175458E2;5,201996326E0;-7,445865631E0;-2,078764677E0
1,858175458E2;7,698308468E0;-1,072463131E1;-4,259822369E0
1,859175458E2;7,027122021E0;-9,227920532E0;-3,002394199E0
1,860175458E2;5,335396290E0;-9,143573761E0;-2,402393818E0
1,861175458E2;8,271389961E0;-1,072044373E1;-4,662415028E0
1,862175458E2;6,298507214E0;-6,329015732E0;-2,596212626E0
1,863175458E2;3,427120209E0;-2,980260611E0;-2,335394859E0
1,864175458E2;2,448455811E0;-1,907079697E0;-2,327618122E0
1,865175458E2;6,258427620E0;-8,112865448E0;-1,858624935E0
1,866175458E2;6,922435760E0;-9,714859962E0;-3,769891977E0
1,867175458E2;8,230113029E0;-1,107697392E1;-2,505883455E0
1,868175458E2;3,846462488E0;-8,408378601E0;-3,171088219E0
1,869175458E2;8,278568268E0;-1,008514881E1;-4,311268330E0
1,870175458E2;4,652843475E0;-5,201996326E0;-1,937588096E0
1,871175458E2;2,836691141E0;-3,868596077E0;-2,297708035E0
1,872175458E2;4,258028030E0;-1,524826288E0;-1,033101201E0
1,873175458E2;5,904289722E0;-8,426922798E0;-3,123231649E0
1,874175458E2;8,163114548E0;-9,726823807E0;-3,447459221E0
1,875175458E2;5,834300041E0;-1,041476059E1;-4,003790379E0
1,876175458E2;5,021338463E0;-9,256634712E0;-3,294318676E0
1,877175458E2;9,946963310E0;-1,153759289E1;-3,784249067E0
1,878175458E2;5,920441628E0;-5,672185898E0;-3,095116138E0
1,879175458E2;3,137588739E0;-3,439682484E0;-1,262812138E0
1,880175458E2;4,320839405E0;-1,529611826E0;-9,140582681E-1
1,881175458E2;5,453242779E0;-7,445865631E0;-2,695514679E0
1,882175458E2;8,463413239E0;-1,002413273E1;-3,509074450E0
1,883175458E2;6,681957245E0;-9,150154114E0;-3,246462107E0
1,884175458E2;6,129813194E0;-9,622138023E0;-3,506083488E0
1,885175458E2;7,321439266E0;-9,253045082E0;-2,343769789E0
1,886175458E2;5,854040623E0;-7,838887215E0;-2,871985435E0
1,887175458E2;3,973282099E0;-3,976871252E0;-1,396211982E0
1,888175458E2;1,317248821E0;-2,693720102E0;-2,341975212E0
1,889175458E2;6,642475605E0;-6,080162525E0;-2,999403238E0
1,890175458E2;5,700301647E0;-1,043390274E1;-3,908077478E0
1,891175458E2;7,627122402E0;-9,424730301E0;-3,634099483E0
1,892175458E2;6,345167637E0;-9,302098274E0;-3,660420418E0
1,893175458E2;6,813562393E0;-9,318847656E0;-2,447857618E0
1,894175458E2;5,827121258E0;-9,014959335E0;-2,809772015E0
1,895175458E2;3,827918053E0;-4,865206718E0;-2,635095835E0
1,896175458E2;3,815355778E0;-1,928615093E0;-2,770290375E0
1,897175458E2;6,429514408E0;-5,037489891E0;-2,988635540E0
1,898175458E2;5,610570908E0;-1,015633583E1;-3,770490170E0
1,899175458E2;8,203194618E0;-9,976275444E0;-2,840280533E0
1,900175458E2;6,440282345E0;-8,877371788E0;-2,825923443E0
1,901175458E2;5,534598827E0;-9,025128365E0;-1,686341763E0
1,902175458E2;7,102495670E0;-8,099704742E0;-2,720639229E0
1,903175458E2;5,726622581E0;-6,364908218E0;-3,306880951E0
1,904175458E2;3,284149170E0;-1,688136339E0;-2,994617462E0
1,905175458E2;5,042873859E0;-2,992822886E0;-2,663809776E0
1,906175458E2;6,641877651E0;-1,254556942E1;-2,889333248E0
1,907175458E2;7,520641804E0;-9,346963882E0;-4,092923164E0
1,908175458E2;6,774080753E0;-1,013659477E1;-2,239083767E0
1,909175458E2;6,160321712E0;-8,743971825E0;-2,147558212E0
1,910175458E2;5,633302689E0;-7,936992645E0;-4,232903481E0
1,911175458E2;4,226323128E0;-5,449653625E0;-2,036292076E0
1,912175458E2;2,789433002E0;-2,026122570E0;-3,355335474E0
1,913175458E2;2,146960020E0;-4,037888348E-1;-3,431905985E0
1,914175458E2;5,709873199E0;-8,140980721E0;-1,503889084E0
1,915175458E2;6,524031162E0;-1,023828983E1;-5,181657314E0
1,916175458E2;5,534000397E0;-8,809774399E0;-1,974078655E0
1,917175458E2;4,392025948E0;-8,394619942E0;-3,143570662E0
1,918175458E2;7,153343201E0;-1,062772179E1;-4,264009953E0
1,919175458E2;5,697310925E0;-7,436892986E0;-2,734398127E0
1,920175458E2;4,299902439E0;-4,646263599E0;-2,059023857E0
1,921175458E2;1,856232166E0;-5,324030519E-1;-3,086741209E0
1,922175458E2;6,512066841E0;-6,548557281E0;-2,906681299E0
1,923175458E2;6,980462074E0;-9,427123070E0;-3,952943087E0
1,924175458E2;8,234300613E0;-9,637093544E0;-2,397010088E0
1,925175458E2;4,643272400E0;-8,298309326E0;-4,028914928E0
1,926175458E2;7,086344242E0;-8,184649467E0;-3,155534744E0
1,927175458E2;6,114260197E0;-6,351149559E0;-3,384647608E0
1,928175458E2;4,034298897E0;-5,160720348E0;-3,628715515E0
1,929175458E2;1,987837434E0;-4,378865361E-1;-2,380260229E0
1,930175458E2;6,177071571E0;-4,218546391E0;-3,259024382E0
1,931175458E2;7,176074982E0;-1,219861031E1;-2,155933142E0
1,932175458E2;5,573482037E0;-8,933005333E0;-3,001197815E0
1,933175458E2;6,990033150E0;-9,218349457E0;-2,759522676E0
1,934175458E2;4,770092010E0;-9,223134995E0;-2,568096876E0
1,935175458E2;8,218747139E0;-8,788239479E0;-4,550550461E0
1,936175458E2;3,924827337E0;-5,042275429E0;-2,295315027E0
1,937175458E2;5,256433010E0;-3,474378586E0;-4,253840446E0
1,938175458E2;2,895315409E0;-2,206780672E0;-4,435096741E0
1,939175458E2;6,463014126E0;-1,075633621E1;-3,287738323E0
1,940175458E2;5,581857204E0;-9,529416084E0;-4,303491592E0
1,941175458E2;7,339983463E0;-9,519247055E0;-3,723830223E0
1,942175458E2;4,296911240E0;-1,162672520E1;-3,643072367E0
1,943175458E2;6,722036839E0;-8,126624107E0;-3,460619688E0
1,944175458E2;5,599205017E0;-6,005984783E0;-3,098107100E0
1,945175458E2;3,034697294E0;-3,638286829E0;-3,282952785E0
1,946175458E2;2,682354212E0;-1,892722726E0;-2,624926329E0
1,947175458E2;6,601797581E0;-8,706285477E0;-1,938784599E0
1,948175458E2;8,185248375E0;-1,040459061E1;-4,878965378E0
1,949175458E2;6,378068924E0;-9,842277527E0;-3,472583771E0
1,950175458E2;5,153541565E0;-8,458627701E0;-2,997010469E0
1,951175458E2;7,385447025E0;-1,019342422E1;-3,903291941E0
1,952175458E2;6,076572895E0;-7,943572998E0;-3,455235958E0
1,953175458E2;5,620740414E0;-5,102694511E0;-2,943770170E0
1,954175458E2;2,683550596E0;-1,941177368E0;-2,209173441E0
1,955175458E2;5,491528034E0;-5,441876888E0;-2,784647465E0
1,956175458E2;5,581258774E0;-1,061037350E1;-3,640081406E0
1,957175458E2;6,269793510E0;-1,034417248E1;-4,053441525E0
1,958175458E2;3,655634880E0;-8,326424599E0;-3,080759048E0
1,959175458E2;3,594019651E0;-9,163912773E0;-2,374876499E0
1,960175458E2;6,575476646E0;-8,940183640E0;-2,496910334E0
1,961175458E2;5,266602516E0;-6,684350014E0;-3,252444267E0
1,962175458E2;5,971288681E0;-6,418148518E0;-3,102294445E0
1,963175458E2;6,647261143E0;-5,552545071E0;-4,588237286E0
1,964175458E2;7,104290485E0;-5,333601475E0;-4,179064751E0
1,965175458E2;7,173682213E0;-6,262016773E0;-4,118047714E0
1,966175458E2;7,406384468E0;-5,746363640E0;-3,628715515E0
1,967175458E2;6,094519138E0;-3,619742393E0;-4,001397610E0
1,968175458E2;7,896913052E0;-9,022137642E0;-4,701896667E0
1,969175458E2;3,501297712E0;-5,804987907E0;-3,854238987E0
1,970175458E2;1,401177120E1;-5,085346222E0;5,599204898E-1
1,971175458E2;8,146963120E0;-2,340180635E0;-6,213562012E0
1,972175458E2;2,803789854E0;-8,303692818E0;-4,517050743E0
1,973175458E2;4,638486862E0;-4,176671982E0;-4,001397610E0
1,974175458E2;1,346740437E1;-8,890532494E0;-8,651249886E0
1,975175458E2;3,756731510E0;-7,393822074E-1;-1,274178028E0
1,976175458E2;1,145982552E1;-1,160698414E1;-9,023932457E0
1,977175458E2;5,910272121E0;-1,898704767E0;-3,061616659E0
1,978175458E2;7,850851059E0;-4,711467743E0;-1,683948994E0
1,979175458E2;7,868198872E0;-9,851250648E0;-2,978466034E0
1,980175458E2;8,647063255E0;-8,425726891E0;-3,230310604E-2
1,981175458E2;5,638088226E0;-9,245268822E0;-2,048854351E0
1,982175458E2;2,877369165E0;-6,521039963E0;2,925225794E-1
1,983175458E2;6,440880299E0;-1,197428226E1;-4,620540619E0
1,984175458E2;5,511268616E0;-6,026323795E0;-2,228316069E0
1,985175458E2;6,014957905E0;-5,472385406E0;-2,231307030E0
1,986175458E2;4,271188259E0;-5,845067501E0;-3,912863255E0
1,987175458E2;1,006959629E1;-7,829914093E0;-5,551946640E0
1,988175458E2;6,344569206E0;-5,851049423E0;-2,010569334E0
1,989175458E2;7,971090317E0;-8,395816803E0;-4,546362877E0
1,990175458E2;7,693522930E0;-6,536593437E0;-3,014358282E0
1,991175458E2;6,410371780E0;-6,533602238E0;-3,384647608E0
1,992175458E2;1,008574772E1;-8,921639442E0;-4,257429600E0
1,993175458E2;5,417948723E0;-7,875975609E0;-2,966501951E0
1,994175458E2;4,971687317E0;-4,928018093E0;-3,936791420E0
1,995175458E2;6,178866386E0;-4,969294548E0;-3,422932863E0
1,996175458E2;7,277770042E0;-4,884947300E0;-4,061218262E0
1,997175458E2;7,066005230E0;-9,108279228E0;-2,874378204E0
1,998175458E2;5,730810165E0;-4,075575352E0;-2,259422779E0
1,999175458E2;7,801798344E0;-7,908278942E0;-3,926621914E0
2,000175458E2;8,036892891E0;-7,971090317E0;-3,865006685E0
2,001175458E2;6,491129398E0;-4,062414646E0;-2,428714991E0
2,002175458E2;1,144606686E1;-8,017151833E0;-3,102892876E0
2,003175458E2;2,307877541E0;-2,584248543E0;-3,839882135E0
2,004175458E2;4,663611412E0;-9,421738982E-1;-5,705087185E0
2,005175458E2;6,758527756E0;-6,974479675E0;-3,397808075E0
2,006175458E2;8,517850876E0;-8,791230202E0;-2,563311338E0
2,007175458E2;9,887143135E0;-1,311506081E1;-4,786243439E0
2,008175458E2;1,286740398E1;-1,815255165E1;-4,252045631E0
2,009175458E2;1,937588096E0;-9,019744873E0;5,563312769E-2
2,010175458E2;3,807579041E0;-1,121336555E1;-9,534799576E0
2,011175458E2;8,870791435E0;-1,011087227E1;7,860422134E-1
2,012175458E2;3,608376503E0;-7,706085205E0;-1,969292998E0
2,013175458E2;6,616752625E0;-1,118285656E1;-2,665006161E0
2,014175458E2;5,248656273E0;-6,791429043E0;-1,474576950E0
2,015175458E2;8,423334122E0;-1,083170986E1;-3,587439299E0
2,016175458E2;6,301498413E0;-8,539385796E0;-1,689931035E0
2,017175458E2;6,111268997E0;-8,063812256E0;-2,909672260E0
2,018175458E2;7,613363266E0;-1,664806366E1;-5,461019516E0
2,019175458E2;4,591826439E0;-2,024327993E0;3,248256743E-1
2,020175458E2;1,495514154E0;-6,044867992E0;2,554338276E-1
2,021175458E2;2,825325251E0;-8,240880966E0;-1,196411371E0
2,022175458E2;-2,697907388E-1;-2,140379906E0;-2,407179594E0
2,023175458E2;1,114576817E1;-8,697910309E0;-1,040518951E1
2,024175458E2;-2,033899277E-1;-5,194219589E0;-4,555934429E0
2,025175458E2;1,282792187E1;-4,505086899E0;1,014556766E0
2,026175458E2;8,344969153E-1;-8,702695847E0;-3,593421459E0
2,027175458E2;4,979464054E0;-1,339561939E1;-5,496313572E0
2,028175458E2;1,413859081E1;-1,495095444E1;-4,234099865E0
2,029175458E2;3,734597921E0;-8,689535141E0;-3,485146284E0
2,030175458E2;1,223928738E1;-1,490967751E1;-8,148159027E0
2,031175458E2;6,782455921E0;-7,485347271E0;-4,308277130E0
2,032175458E2;2,851646423E0;-1,858624935E0;7,148557901E-1
2,033175458E2;3,619144201E0;-7,478168964E0;-5,174478889E-1
2,034175458E2;8,065607071E0;-9,463613510E0;-8,073982239E0
2,035175458E2;6,352943897E0;-1,039501953E1;-6,050251961E0
2,036175458E2;8,653044701E0;-8,176275253E0;-1,289731383E0
2,037175458E2;4,773681164E0;-8,116454124E0;-5,027918816E0
2,038175458E2;9,798608780E0;-9,110671997E0;-1,446461320E0
2,039175458E2;8,262416840E0;-7,699504852E0;-3,789632797E0
2,040175458E2;3,376272678E0;-4,258625984E0;-9,014959335E-1
2,041175458E2;1,262213898E1;-1,679163337E0;1,902892232E0
2,042175458E2;7,308278561E0;-1,093519974E1;-3,498306751E0
2,043175458E2;1,198564816E1;-1,443290806E1;-5,908477306E0
2,044175458E2;1,291944790E1;-2,366800690E1;1,822134495E0
2,045175458E2;6,074180126E0;-8,039883614E0;1,366899967E0
2,046175458E2;4,764110088E0;-3,309871912E0;-5,528616905E0
2,047175458E2;7,320242882E0;-7,684549809E0;-2,263610125E0
2,048175458E2;-1,947757602E0;4,660021961E-1;-3,661018610E0
2,049175458E2;6,722036839E0;-3,019742250E0;1,332203984E0
2,050175458E2;3,166302681E0;-1,266999626E1;-9,909874916E0
2,051175458E2;1,113380337E1;-1,430010605E1;-3,212364435E0
2,052175458E2;5,142175674E0;-9,440283775E0;-6,758527756E0
2,053175458E2;5,017749310E0;-9,463015556E0;-2,711068153E0
2,054175458E2;3,245265722E0;-5,934798241E0;-2,973680258E0
2,055175458E2;5,948556900E0;-3,946362734E0;-3,025125980E0
2,056175458E2;7,913064480E0;-5,576473236E0;-2,535793781E0
2,057175458E2;2,224128723E0;-6,852446079E0;-1,543968797E0
2,058175458E2;8,850452423E0;-1,537388563E0;-2,566900492E0
2,059175458E2;5,424529076E0;-9,245866776E0;-5,526822090E0
2,060175458E2;7,487740040E0;-7,132406235E0;-3,469592705E-2
2,061175458E2;8,665008545E0;-1,007557774E1;-4,737788677E0
2,062175458E2;3,619144201E0;-8,288139343E0;1,368096352E0
