"Time (s)";"Gyroscope x (rad/s)";"Gyroscope y (rad/s)";"Gyroscope z (rad/s)"
1,298741010E-1;-1,362687588E0;-2,062586546E0;-5,791002512E-1
2,298741010E-1;2,252565622E-1;-1,886810064E0;-8,367326856E-1
3,298741010E-1;-1,271363258E0;-1,785711884E0;4,838052690E-1
4,298741010E-1;1,398576021E0;-8,642216325E-1;1,179733515E0
5,298741010E-1;-1,353066564E-1;-2,723084450E0;-3,995058835E-1
6,298741010E-1;2,285705090E0;-4,663650513E0;1,673618078E0
7,298741010E-1;4,886921942E-1;-4,372420788E0;3,245068789E0
8,298741010E-1;-2,517681122E0;-1,693623900E0;5,123785019E0
9,298741010E-1;1,189354658E0;1,337947607E0;3,690084219E0
1,029874101E0;1,489900351E0;1,626276016E0;3,947716653E-1
1,129874101E0;1,097724795E0;-2,176054716E0;7,015787363E-1
1,229874101E0;-1,716531366E-1;-3,667940378E0;-3,905566931E0
1,329874101E0;6,838636398E-1;-7,660250068E-1;-9,731083512E-1
1,429874101E0;-1,505019307E0;2,088242769E0;3,496898174E0
1,529874101E0;-9,850202203E-1;-5,581781268E-1;9,376781434E-2
1,629874101E0;6,354525685E-1;-1,423926830E0;5,288565755E-1
1,729874101E0;-7,681630552E-2;-6,940956116E-1;8,564330935E-1
1,829874101E0;8,489499688E-1;-1,758375645E0;2,780200481E0
1,929874101E0;1,612684280E-1;-1,579850197E0;2,370768070E0
2,029874101E0;5,627595782E-1;-3,003929853E-1;2,081218004E0
2,129874101E0;2,631302178E-1;2,251801968E0;-3,834706545E-1
2,229874101E0;-3,176499158E-2;7,255551815E-1;-2,657263726E-2
2,329874101E0;-2,813034356E-1;1,604284883E0;-2,483167201E-1
2,429874101E0;1,130100712E-2;-4,111123085E-1;1,953394294E0
2,529874101E0;-7,791585922E-1;2,591137648E0;6,010913849E-1
2,629874101E0;-3,764609814E0;-7,985535860E-1;2,552347660E0
2,729874101E0;-3,011107445E0;-6,412557960E-1;2,312888622E0
2,829874101E0;-2,950173616E0;-6,180428863E-1;9,529497623E-1
2,929874101E0;-2,959489346E0;-1,950187236E-1;-3,110831380E-1
3,029874101E0;-2,047467470E0;2,861903608E-1;-1,370628953E0
3,129874101E0;-2,079385281E0;6,998988390E-1;-2,207819700E0
3,229874101E0;-1,534646153E0;-1,233947799E-1;-3,491400242E0
3,329874101E0;-1,161713004E0;-4,734205548E-3;-3,444058180E0
3,429874101E0;-1,327410221E0;-2,638937831E-1;-2,795624733E0
3,529874101E0;-8,852964640E-1;6,328563690E-1;-1,859168410E0
3,629874101E0;-8,842274547E-2;1,646281779E-1;-1,550834179E0
3,729874101E0;4,749477208E-1;2,153300047E-1;-1,480431914E0
3,829874101E0;5,748242140E-1;-2,396118939E-1;-1,521818042E0
3,929874101E0;6,290385127E-1;-7,283040881E-1;-9,776898026E-1
4,029874101E0;4,040873647E-1;-4,654793143E-1;-7,087563872E-1
4,129874101E0;-5,490151644E-1;-7,869471312E-1;4,657847434E-2
4,229874101E0;-1,879937798E-1;-1,406059027E0;-9,954048991E-1
4,329874101E0;-5,962044597E-1;-1,493107319E0;-1,186452985E0
4,429874101E0;-1,673465371E0;-1,007622242E0;-6,527095437E-1
4,529874101E0;-1,893529534E0;-6,101016402E-1;-1,238529325E0
4,629874101E0;-1,614364147E0;1,760819107E-1;-1,459204316E0
4,729874101E0;-1,064127207E0;6,403394938E-1;-1,299463034E0
4,829874101E0;-6,110179424E-1;6,637051105E-1;-1,318552613E0
4,929874101E0;3,594942093E-1;3,477350473E-1;-9,138544202E-1
5,029874101E0;8,358163834E-1;-2,710714638E-1;-7,958046794E-1
5,129874101E0;-7,757988572E-2;9,511171579E-1;-6,382014751E-1
5,229874101E0;1,056491494E0;1,676825136E-1;-7,360926270E-1
5,329874101E0;1,932014108E0;-2,101376504E-1;-6,659958363E-1
5,429874101E0;1,804954052E0;-5,291619897E-1;-6,291911751E-2
5,529874101E0;1,361924052E0;-4,896084964E-1;3,353650272E-1
5,629874101E0;5,392413139E-1;-5,642867684E-1;2,826778889E-1
5,729874101E0;-5,975789428E-1;3,584251702E-1;1,918116808E-1
5,829874101E0;-1,138347387E0;3,222314119E-1;-1,157742381E0
5,929874101E0;-1,508837193E-1;-1,025642753E0;-1,219745159E0
6,029874101E0;2,394591719E-1;-4,926628172E-1;-1,608713627E0
6,129874101E0;-8,484918475E-1;-5,826127529E-1;-1,432631731E0
6,229874101E0;-1,493718266E0;-1,180191636E0;-1,254106402E0
6,329874101E0;-1,097572088E0;-6,918048859E-1;-1,010218382E0
6,429874101E0;-6,982190013E-1;5,991060734E-1;-9,144652486E-1
6,529874101E0;7,489207983E-1;9,082038999E-1;2,872593701E-1
6,629874101E0;1,778228760E0;7,208209634E-1;5,966626406E-1
6,729874101E0;2,235919476E0;-1,563815027E-1;6,255260110E-1
6,829874101E0;1,799456239E0;1,203404516E-1;7,753407359E-1
6,929874101E0;4,810563922E-1;-5,013676286E-1;-1,838704348E-1
7,029874101E0;-3,274237812E-1;4,830417037E-1;-6,855435371E-1
7,129874101E0;-9,222537875E-1;-3,837760985E-1;-6,455318332E-1
7,229874101E0;-1,891696930E0;-6,093380973E-2;-4,040873647E-1
7,329874101E0;-2,095267773E0;-8,735372871E-2;-4,210388660E-1
7,429874101E0;-1,243110776E0;-1,725694388E-1;-1,736384481E-1
7,529874101E0;-1,588249654E-1;2,246456891E-1;-1,470658034E-1
7,629874101E0;6,281222105E-1;4,540255964E-1;3,937026560E-1
7,729874101E0;2,045787811E0;4,721988440E-1;8,492553830E-1
7,829874101E0;2,086715698E0;4,703662544E-2;1,252121091E0
7,929874101E0;1,578933954E0;-1,889100820E-1;5,728389025E-1
8,029874101E0;2,944370508E-1;5,604688451E-2;-1,504255682E-1
8,129874101E0;-6,844745278E-1;1,763873398E-1;-3,920227587E-1
8,229874101E0;-4,873177409E-1;1,514945775E-1;-2,519819140E-1
8,329874101E0;-6,601926088E-1;1,336267740E-1;-4,190535545E-1
8,429874101E0;-6,846272349E-1;2,142609805E-1;-4,138612151E-1
8,529874101E0;-1,103069901E0;7,696902007E-2;-6,743952036E-1
8,629874101E0;-9,068294764E-1;-3,115412779E-2;-5,137376785E-1
8,729874101E0;-1,091310740E0;-5,821545720E-1;-3,006984293E-1
8,829874101E0;-4,013384581E-1;-2,396118939E-1;-2,977968007E-2
8,929874101E0;1,168279797E-1;2,489275858E-2;-1,125519201E-1
9,029874101E0;3,565925956E-1;-6,841690838E-2;2,214386500E-2
9,129874101E0;-7,269296050E-2;-2,443460934E-2;-3,573561832E-2
9,229874101E0;-3,483459055E-1;-1,658499092E-1;6,001751125E-2
9,329874101E0;-5,355761051E-1;-1,180497110E-1;-3,883575797E-1
9,429874101E0;-1,785253733E-1;-1,059851199E-1;-3,788891733E-1
9,529874101E0;4,857905805E-1;-1,818851233E-1;1,496619824E-2
9,629874101E0;1,275486588E0;-1,519527286E-1;5,604688525E-1
9,729874101E0;2,071902275E0;1,438587606E-1;1,406059027E0
9,829874101E0;2,022116661E0;-4,793764949E-1;1,175304770E0
9,929874101E0;1,449430466E0;-3,675881624E-1;8,297077417E-1
1,002987410E1;5,531384945E-1;5,482515693E-2;2,475531399E-1
1,012987410E1;2,622139156E-1;-6,979135424E-2;1,044579595E-1
1,022987410E1;1,658499092E-1;1,537853181E-1;1,090394482E-1
1,032987410E1;-3,604105115E-2;8,704829961E-3;-3,711006418E-2
1,042987410E1;-2,535090744E-1;1,229366288E-1;-1,085812971E-1
1,052987410E1;-2,154827118E-1;1,916589737E-1;-5,390885845E-2
1,062987410E1;-3,049744666E-1;4,459316283E-2;1,114829071E-2
1,072987410E1;-3,897320330E-1;-5,238169432E-2;-9,437867999E-2
1,082987410E1;-4,914411008E-1;-1,264491081E-1;-3,546072841E-1
1,092987410E1;-4,396702647E-1;2,971859276E-1;-2,119702399E-1
1,102987410E1;-3,675881624E-1;4,025602043E-1;-3,623957932E-1
1,112987410E1;-2,915354371E-1;-1,035416573E-1;-1,560760736E-1
1,122987410E1;-9,804387391E-2;-1,372919679E-1;-2,038762718E-1
1,132987410E1;-9,376781434E-2;-1,873829067E-1;-1,221730486E-1
1,142987410E1;-3,084869497E-2;-1,235474944E-1;-1,664607823E-1
1,152987410E1;1,324050426E-1;-2,516764700E-1;-1,922698319E-1
1,162987410E1;3,098613918E-1;-1,737911552E-1;-6,902777404E-2
1,172987410E1;2,519819140E-2;-1,647808999E-1;-2,443460980E-3
1,182987410E1;-1,434006095E-1;1,572977938E-2;-4,978551716E-2
1,192987410E1;-1,372919679E-1;-3,176499158E-2;1,171334088E-1
1,202987410E1;-7,620543987E-2;-1,478293836E-1;1,386664063E-1
1,212987410E1;1,374446750E-1;1,256855279E-1;2,226603776E-1
1,222987410E1;4,828889668E-1;1,621847153E-1;1,470658034E-1
1,232987410E1;8,115344644E-1;2,142609805E-1;9,653198123E-1
1,242987410E1;1,482417226E0;9,605856240E-2;7,334964275E-1
1,252987410E1;-8,185594529E-2;1,893682331E-1;-2,890919745E-1
1,262987410E1;-5,736024380E-1;-5,665775016E-2;-8,811730891E-2
1,272987410E1;-7,522805333E-1;-1,366810948E-1;-2,596177347E-2
1,282987410E1;-5,933028460E-1;1,154535338E-1;-4,280638099E-1
1,292987410E1;-6,246097088E-1;-4,178318381E-1;-2,539672256E-1
1,302987410E1;-2,186897546E-1;-1,886046380E-1;1,334740520E-1
1,312987410E1;1,789835095E-1;-3,738495409E-1;-1,621847153E-1
1,322987410E1;5,577199459E-1;-1,142318025E-1;9,621127509E-3
1,332987410E1;1,195310593E0;1,966986060E-1;6,198754907E-1
1,342987410E1;1,898263693E-1;2,666426897E-1;2,406809032E-1
1,352987410E1;-5,403103232E-1;-2,208277881E-1;-3,921754956E-1
1,362987410E1;-5,500841737E-1;6,125451326E-1;-3,023782969E-1
1,372987410E1;-7,374670506E-1;4,010330439E-1;-6,340781450E-1
1,382987410E1;-8,596401215E-1;3,100141138E-2;-8,846855760E-1
1,392987410E1;-6,085745096E-1;-2,617557645E-1;-7,379252315E-1
1,402987410E1;2,800817192E-1;-3,233004212E-1;-1,470658034E-1
1,412987410E1;1,908953860E-2;-4,227187634E-1;3,010038435E-1
1,422987410E1;1,786780804E-1;-3,854559660E-1;3,231477141E-1
1,432987410E1;1,391856432E0;-1,687515229E-1;4,668537676E-1
1,442987410E1;3,759875596E-1;9,246972799E-1;6,227771044E-1
1,452987410E1;2,295173407E0;2,417499274E-1;7,643451095E-1
1,462987410E1;1,996307611E0;-6,027712822E-1;1,298546791E0
1,472987410E1;9,808968902E-1;-8,979719132E-2;1,119868755E0
1,482987410E1;-2,383901626E-1;4,291328415E-2;-5,526803136E-1
1,492987410E1;-1,249524832E0;3,002402782E-1;-1,888795376E0
1,502987410E1;-2,679255009E0;4,476115108E-1;-1,967291474E0
1,512987410E1;-3,412293196E0;7,328855991E-1;-2,061670303E0
1,522987410E1;-2,156354427E0;-5,589416996E-2;-1,826334357E0
1,532987410E1;-2,211332172E-1;-2,596177394E-3;-8,735373020E-1
1,542987410E1;1,507004619E0;8,984300494E-1;-6,998988390E-1
1,552987410E1;2,137112141E0;-4,459316283E-2;9,941831976E-2
1,562987410E1;1,574657917E0;1,388191283E-1;3,500257730E-1
1,572987410E1;1,546252608E0;2,901609838E-1;1,157436967E0
1,582987410E1;5,212207437E-1;4,105014503E-1;1,113760114E0
1,592987410E1;-4,796819389E-1;-3,706424832E-1;6,933320314E-2
1,602987410E1;-1,956295967E-1;2,182621479E0;-1,009607553E0
1,612987410E1;-3,443752825E-1;-3,089450896E-1;-9,338602424E-1
1,622987410E1;-1,244485259E0;-1,381319046E0;-1,685988009E-1
1,632987410E1;-2,665357828E0;-9,132435173E-2;-4,095851481E-1
1,642987410E1;-7,648032904E-1;9,349292517E-1;-2,993239760E-1
1,652987410E1;1,079704285E0;6,959282160E-1;1,038165450E0
1,662987410E1;2,185981274E0;2,373211533E-1;1,512502313E0
1,672987410E1;1,695609212E0;-6,001751125E-2;1,740202308E0
1,682987410E1;9,123272300E-1;1,331686229E-1;3,938553631E-1
1,692987410E1;-4,280638099E-1;6,290385127E-1;-1,122617602E0
1,702987410E1;-7,093672752E-1;-9,173668623E-1;-1,441336513E0
1,712987410E1;-1,781435728E0;-1,035111189E0;-9,373727441E-1
1,722987410E1;-2,806773186E0;-1,317941695E-1;-9,162978828E-2
1,732987410E1;-7,501425147E-1;7,907650471E-1;-1,362229437E-1
1,742987410E1;1,139110923E0;4,181372523E-1;7,996225953E-1
1,752987410E1;1,774410844E0;-1,288925707E-1;1,159116745E0
1,762987410E1;2,016313553E0;-4,497495294E-1;1,390023828E0
1,772987410E1;1,034805775E0;8,478809595E-1;2,277000248E-1
1,782987410E1;-8,981246352E-1;3,023782969E-1;-9,537133574E-1
1,792987410E1;-1,019839525E0;-1,306946158E0;-9,382890463E-1
1,802987410E1;-1,031598687E0;-1,201266527E0;-5,212207437E-1
1,812987410E1;-1,845118523E0;-1,024726480E-1;-5,435173512E-1
1,822987410E1;-1,860084653E0;-4,670064747E-1;-4,694499373E-1
1,832987410E1;-3,092505336E-1;6,047565863E-2;-7,299839705E-2
1,842987410E1;1,992947817E0;7,657195926E-1;1,826487064E0
1,852987410E1;2,064266443E0;-5,273294449E-1;1,779755950E0
1,862987410E1;1,454775572E0;-5,610797405E-1;7,136433125E-1
1,872987410E1;-9,896016866E-2;-1,191950798E0;-2,803871334E-1
1,882987410E1;-4,308127165E-1;4,668537676E-1;-6,692028642E-1
1,892987410E1;-3,779728711E-1;-5,820018649E-1;-1,072832108E0
1,902987410E1;-1,336573124E0;-6,296493411E-1;-6,904304624E-1
1,912987410E1;-1,648267150E0;-3,342960179E-1;-4,720461071E-1
1,922987410E1;-1,581988215E0;-5,285511613E-1;-4,117231667E-1
1,932987410E1;-7,405213714E-1;1,485929638E-1;-5,513058975E-2
1,942987410E1;1,010829210E0;2,122756690E-1;9,016370773E-1
1,952987410E1;1,955379605E0;1,140790880E-1;1,283580542E0
1,962987410E1;2,207208872E0;3,188716471E-1;1,068556070E0
1,972987410E1;9,854783416E-1;-7,611380816E-1;3,168863356E-1
1,982987410E1;-2,623666227E-1;1,481500983E0;-8,694139719E-1
1,992987410E1;-1,311833113E-1;-1,475086808E0;-5,401576161E-1
2,002987410E1;-1,096503139E0;-1,921171248E-1;-6,380487680E-1
2,012987410E1;-2,235614061E0;3,191770986E-2;-7,832819819E-1
2,022987410E1;-2,023643732E0;-6,155994534E-1;-5,280929804E-1
2,032987410E1;4,376849532E-1;1,053895235E0;5,421429127E-2
2,042987410E1;1,755321264E0;7,825183868E-1;1,130864263E0
2,052987410E1;2,411085129E0;1,356120855E-1;1,799761772E0
2,062987410E1;1,226770163E0;-4,593706727E-1;1,382235289E0
2,072987410E1;-1,600466967E-1;-3,825543523E-1;-5,548183322E-1
2,082987410E1;-3,419318199E-1;2,790127039E0;-1,125061035E0
2,092987410E1;-7,664831877E-1;-2,345722616E-1;-1,173319459E0
2,102987410E1;-2,017229795E0;-8,153523803E-1;-8,342891932E-1
2,112987410E1;-2,511114359E0;1,094975919E-1;-6,409503818E-1
2,122987410E1;-2,629774809E-1;6,261368841E-2;-4,134030640E-1
2,132987410E1;2,247067690E0;9,984592199E-1;1,437060475E0
2,142987410E1;2,353511095E0;-3,471241891E-1;1,369407177E0
2,152987410E1;1,694540143E0;-1,818851233E-1;1,054811597E0
2,162987410E1;-1,837177277E-1;-1,498299718E0;-3,921754956E-1
2,172987410E1;-4,167627990E-1;1,357037187E0;-1,180649757E0
2,182987410E1;-1,333824277E0;-2,782491148E-1;-1,477683067E0
2,192987410E1;-2,540130377E0;-2,000583708E-1;-6,398813725E-1
2,202987410E1;-1,974621892E0;-7,930558324E-1;-6,615670323E-1
2,212987410E1;3,481931984E-1;6,963863969E-1;1,032362282E-1
2,222987410E1;2,020589590E0;5,904012322E-1;1,415222049E0
2,232987410E1;2,293188095E0;-3,735440969E-1;1,958739400E0
2,242987410E1;1,340391040E0;-7,043276429E-1;8,801041245E-1
2,252987410E1;-5,650503635E-1;6,524040699E-1;-6,924157739E-1
2,262987410E1;-9,327912331E-1;6,608034968E-1;-9,969320893E-1
2,272987410E1;-1,668883801E0;3,176499158E-2;-1,283580542E0
2,282987410E1;-2,717586756E0;-9,068294764E-1;-8,196284175E-1
2,292987410E1;-1,089783549E0;-3,390302137E-2;-3,758348525E-1
2,302987410E1;1,173930287E0;7,985535860E-1;5,948300362E-1
2,312987410E1;2,537687063E0;-3,344487399E-2;1,246317863E0
2,322987410E1;2,265393734E0;-1,113301888E-1;1,331228137E0
2,332987410E1;8,449793458E-1;1,510364264E-1;1,724167168E-1
2,342987410E1;-5,077817440E-1;9,402743578E-1;-4,902193546E-1
2,352987410E1;-1,116814375E0;-7,005097270E-1;-1,158964038E0
2,362987410E1;-2,340224743E0;-9,132435322E-1;-1,030835152E0
2,372987410E1;-2,221564293E0;-7,116580009E-1;-4,327980280E-1
2,382987410E1;-3,594942093E-1;9,437867999E-2;-2,809980214E-1
2,392987410E1;2,027003527E0;1,144303322E0;1,169348836E0
2,402987410E1;2,278985500E0;-4,092797264E-2;1,878563404E0
2,412987410E1;1,691027761E0;-4,715879560E-1;1,226464748E0
2,422987410E1;-2,354885489E-1;-1,514945775E-1;-5,210680366E-1
2,432987410E1;-7,767151594E-1;-2,521346211E-1;-3,978259861E-1
2,442987410E1;-1,678199530E0;-3,417791128E-1;-1,588707805E0
2,452987410E1;-2,428952932E0;-1,114829108E-1;-4,039346576E-1
2,462987410E1;-1,433395267E0;-7,947356701E-1;-2,813034356E-1
2,472987410E1;6,940956116E-1;1,109025836E0;4,839579761E-1
2,482987410E1;2,390621185E0;1,324050426E-1;1,143997908E0
2,492987410E1;2,309528828E0;6,551529467E-2;1,739438772E0
2,502987410E1;9,393580556E-1;-3,842342496E-1;3,822489381E-1
2,512987410E1;-4,150829315E-1;1,213331103E0;-6,125451326E-1
2,522987410E1;-1,016937971E0;7,880161703E-2;-1,416291118E0
2,532987410E1;-2,425745964E0;-1,386053205E0;-1,300073981E0
2,542987410E1;-2,392301083E0;-6,140722632E-1;-2,887865305E-1
2,552987410E1;-3,061962128E-1;1,666134894E-1;-3,069597781E-1
2,562987410E1;2,087784767E0;1,084438562E0;9,908234477E-1
2,572987410E1;2,497217178E0;-2,214386463E-1;1,715920448E0
2,582987410E1;1,793500304E0;-8,842274547E-2;1,110247612E0
2,592987410E1;-6,108652335E-3;1,221730467E-2;-2,860376537E-1
2,602987410E1;-8,239045143E-1;1,089325428E0;-1,063210964E0
2,612987410E1;-1,739133358E0;3,543018401E-1;-1,516931176E0
2,622987410E1;-2,352442026E0;-9,506590366E-1;-5,259549618E-1
2,632987410E1;-1,159116745E0;1,374446787E-3;-3,546072841E-1
2,642987410E1;1,322675943E0;6,414085031E-1;7,692320347E-1
2,652987410E1;2,287842989E0;2,231185287E-1;1,621541739E0
2,662987410E1;1,833817482E0;-5,184718966E-1;1,581530094E0
2,672987410E1;7,105889916E-1;9,560041130E-2;1,209513173E-1
2,682987410E1;-1,853975952E-1;1,332297087E0;-1,018923283E0
2,692987410E1;-1,541976571E0;-6,102544069E-1;-1,320385218E0
2,702987410E1;-2,383137941E0;-1,141707182E0;-1,614822268E0
2,712987410E1;-1,749212623E0;-4,358523488E-1;-2,848159075E-1
2,722987410E1;5,256495476E-1;9,500481486E-1;-1,050688252E-1
2,732987410E1;2,430632830E0;1,038165450E0;1,383457065E0
2,742987410E1;2,415361166E0;-4,347833395E-1;1,656513810E0
2,752987410E1;1,396438003E0;-8,303185701E-1;6,991352439E-1
2,762987410E1;-5,916230083E-1;9,682214260E-2;-7,073819637E-1
2,772987410E1;-9,447031021E-1;6,693555713E-1;-9,615018964E-1
2,782987410E1;-2,245388031E0;-5,183191895E-1;-1,545794487E0
2,792987410E1;-2,488206863E0;-5,606215596E-1;-3,966042697E-1
2,802987410E1;-4,948008358E-1;2,469422817E-1;-2,823724449E-1
2,812987410E1;1,850616217E0;7,545713186E-1;9,947940707E-1
2,822987410E1;2,097558498E0;-8,246680722E-3;2,073887587E0
2,832987410E1;2,088548183E0;-7,750352621E-1;1,233184218E0
2,842987410E1;2,092213482E-1;1,549917817E0;-1,016632438E0
2,852987410E1;-1,190118194E0;-1,178053617E0;-2,163990140E-1
2,862987410E1;-1,301601171E0;1,612226129E0;-2,561510801E0
2,872987410E1;-2,039679050E0;-7,736608386E-1;-5,659666657E-1
2,882987410E1;-1,265865445E0;-6,782131195E-1;-5,164865851E-1
2,892987410E1;8,907942176E-1;5,259549618E-1;4,918992519E-1
2,902987410E1;2,348013401E0;7,736608386E-1;1,404531956E0
2,912987410E1;1,747380018E0;4,291328415E-2;1,649641633E0
2,922987410E1;1,034805775E0;-2,225076705E-1;4,401284158E-1
2,932987410E1;-4,876231849E-1;9,230173826E-1;-7,305948138E-1
2,942987410E1;-1,163851023E0;-3,975205719E-1;-1,410793304E0
2,952987410E1;-1,857793927E0;-1,393078208E0;-1,445612550E0
2,962987410E1;-2,321440697E0;-6,740897894E-1;-5,978843570E-1
2,972987410E1;1,466076635E-2;5,080871582E-1;-5,054909736E-2
2,982987410E1;2,046551228E0;1,121395826E0;1,365589261E0
2,992987410E1;2,273029566E0;5,100724697E-1;2,300976753E0
3,002987410E1;1,560913444E0;-4,660901725E-1;1,079856992E0
3,012987410E1;-4,251621962E-1;-1,050688252E-1;-1,139110923E0
3,022987410E1;-9,954048991E-1;-1,819767594E0;-1,366810948E-1
3,032987410E1;-1,597870708E0;-1,009454802E-1;-9,037751555E-1
3,042987410E1;-2,230116367E0;-9,216429591E-1;-1,156062484E0
3,052987410E1;-3,524692357E-1;4,331034720E-1;-4,673119187E-1
3,062987410E1;1,709964514E0;8,103127480E-1;9,288206100E-1
3,072987410E1;2,088701010E0;-8,781187981E-2;2,011579275E0
3,082987410E1;2,230268955E0;-2,764165103E-1;1,514182210E0
3,092987410E1;1,001666307E0;6,959282160E-1;-1,037860036E0
3,102987410E1;-7,031059265E-1;1,773036420E-1;-6,284276247E-1
3,112987410E1;-1,236238599E0;-1,587180614E0;-1,589318633E0
3,122987410E1;-2,662456274E0;-5,233588219E-1;-5,587889552E-1
3,132987410E1;-1,397659659E0;-7,202101350E-1;-5,668829679E-1
3,142987410E1;5,253441334E-1;3,303253949E-1;4,796819389E-1
3,152987410E1;2,377945662E0;9,596692920E-1;1,333671570E0
3,162987410E1;1,956295967E0;3,588833287E-2;1,401782990E0
3,172987410E1;1,480126500E0;-4,509712756E-1;5,233588219E-1
3,182987410E1;-2,863430977E-1;-8,248208165E-1;-7,139487267E-1
3,192987410E1;-1,047633886E0;-8,199338913E-1;-8,669704795E-1
3,202987410E1;-2,397493362E0;-3,036000133E-1;-1,667662144E0
3,212987410E1;-1,958892107E0;-3,985895589E-2;-8,307767659E-2
3,222987410E1;-6,626361012E-1;2,660318017E-1;-2,299907655E-1
3,232987410E1;1,699579835E0;8,900306821E-1;1,031293273E0
3,242987410E1;2,181094408E0;3,489567637E-1;1,700343370E0
3,252987410E1;1,790598750E0;2,545780838E-1;1,584889889E0
3,262987410E1;-1,566869318E-1;-1,266476393E0;-9,315694682E-3
3,272987410E1;-8,148942590E-1;-8,093964458E-1;-8,491026759E-1
3,282987410E1;-1,331228137E0;-6,232352853E-1;-1,487762332E0
3,292987410E1;-2,365881205E0;-9,880745411E-2;-2,739730477E-1
3,302987410E1;-8,385652900E-1;-3,698789179E-1;-5,499314666E-1
3,312987410E1;6,553056836E-1;8,466592431E-1;1,365283877E-1
3,322987410E1;2,264019251E0;4,150829315E-1;1,543809175E0
3,332987410E1;2,010815620E0;9,575312585E-2;2,212248564E0
3,342987410E1;8,006916046E-1;1,817324013E-2;6,249151230E-1
3,352987410E1;-3,617849350E-1;1,121548533E0;-8,410087228E-1
3,362987410E1;-1,037554622E0;-4,326453209E-1;-1,458135366E0
3,372987410E1;-1,926210880E0;-7,483099103E-1;-1,212872982E0
3,382987410E1;-2,415819407E0;-3,184134960E-1;-6,359107494E-1
3,392987410E1;4,010330439E-1;2,054034323E-1;-3,875939846E-1
3,402987410E1;2,151620150E0;1,079246163E0;1,726916075E0
3,412987410E1;2,287232161E0;2,842050493E-1;1,526399493E0
3,422987410E1;1,699579835E0;3,782783151E-1;8,003861904E-1
3,432987410E1;-1,641700417E-1;1,886046380E-1;-7,310529947E-1
3,442987410E1;-1,182787776E0;-2,223549485E-1;-1,137431145E0
3,452987410E1;-2,058615923E0;-1,091616154E0;-1,554957509E0
3,462987410E1;-2,648253441E0;-9,379835725E-1;-4,981606007E-1
3,472987410E1;-6,933320314E-2;1,534798890E-1;4,436408877E-1
3,482987410E1;1,387274981E0;6,902777553E-1;5,920811296E-1
3,492987410E1;2,403754711E0;6,482807398E-1;1,856419444E0
3,502987410E1;9,721920490E-1;-1,621847153E-1;1,922087550E0
3,512987410E1;2,729040384E-1;-1,334893227E0;9,239336848E-2
3,522987410E1;-7,188356519E-1;4,657847583E-1;-9,170614481E-1
3,532987410E1;-1,111621976E0;9,162978828E-2;-1,710422635E0
3,542987410E1;-2,359161615E0;-1,199739337E0;-9,940304756E-1
3,552987410E1;-1,260978580E0;-8,842274547E-2;-2,901609838E-1
3,562987410E1;9,792169929E-1;1,072984815E0;4,737260044E-1
3,572987410E1;2,420553446E0;7,840455174E-1;1,823738217E0
3,582987410E1;2,061822891E0;3,828597963E-1;1,883297563E0
3,592987410E1;8,794932365E-1;-6,108652353E-1;4,937318265E-1
3,602987410E1;-1,058323979E0;2,397646010E-2;-1,073137522E0
3,612987410E1;-1,445765376E0;-1,224937558E0;-8,605564237E-1
3,622987410E1;-2,077705383E0;1,634064466E-1;-5,120577812E-1
3,632987410E1;-1,436907768E0;-9,579893947E-1;-6,250678897E-1
3,642987410E1;5,618433356E-1;5,893322229E-1;1,568396538E-1
3,652987410E1;1,887726307E0;7,974845767E-1;1,092379808E0
3,662987410E1;2,325716734E0;6,577491760E-1;1,853517890E0
3,672987410E1;1,272737741E0;8,674286306E-2;6,950119138E-1
3,682987410E1;-1,847867370E-1;-7,360926270E-2;-9,271407127E-1
3,692987410E1;-1,153619051E0;-8,350527883E-1;-8,549059033E-1
3,702987410E1;-1,809077382E0;-7,382306457E-1;-1,204931736E0
3,712987410E1;-2,415666580E0;-1,041677952E0;-6,983717084E-1
3,722987410E1;-3,378084898E-1;5,056437254E-1;-1,000291854E-1
3,732987410E1;1,612989664E0;1,177748203E0;1,555568337E0
3,742987410E1;2,174374819E0;2,513710558E-1;2,100612879E0
3,752987410E1;1,724930763E0;-4,825835526E-1;1,364367485E0
3,762987410E1;1,753183305E-1;4,554000497E-1;-4,172209501E-1
3,772987410E1;-9,248499870E-1;5,395467281E-1;-9,334021211E-1
3,782987410E1;-1,829999566E0;-7,403686643E-1;-1,905899525E0
3,792987410E1;-2,995072365E0;-5,983424783E-1;-9,219483733E-1
3,802987410E1;-5,978843570E-1;-5,965099335E-1;-2,955060601E-1
3,812987410E1;9,859365225E-1;8,885034919E-1;7,111998796E-1
3,822987410E1;2,259896040E0;3,208569586E-1;1,622152686E0
3,832987410E1;1,913077235E0;2,515237629E-1;1,852601528E0
3,842987410E1;4,442517459E-1;-5,904012322E-1;2,932153046E-1
3,852987410E1;-5,389358401E-1;7,244861722E-1;-7,727445364E-1
3,862987410E1;-9,358455539E-1;1,033889428E-1;-1,493412852E0
3,872987410E1;-1,892307758E0;1,679879427E-2;-8,330674767E-1
3,882987410E1;-1,713018894E0;-1,424995899E0;-6,221662760E-1
3,892987410E1;4,444044530E-1;7,663304210E-1;1,053742543E-1
3,902987410E1;1,904219627E0;8,891143799E-1;1,007011414E0
3,912987410E1;1,980883241E0;-1,311833113E-1;1,933388472E0
3,922987410E1;1,057560444E0;-5,485569835E-1;1,050840974E0
3,932987410E1;-1,038470957E-2;2,452623993E-1;-6,892086864E-1
3,942987410E1;-1,072984815E0;-9,891435504E-1;-1,030071497E0
3,952987410E1;-1,820073009E0;-3,287982047E-1;-1,499521494E0
3,962987410E1;-2,310750484E0;-7,967209816E-1;-6,466008425E-1
3,972987410E1;-7,716755271E-1;6,287330389E-1;-4,564690590E-1
3,982987410E1;1,607186437E0;1,377959251E0;1,282664299E0
3,992987410E1;2,333352566E0;6,517932415E-1;2,061975718E0
4,002987410E1;1,668425679E0;-1,415680200E-1;1,154077172E0
4,012987410E1;1,024726480E-1;-5,652030706E-1;-3,103195429E-1
4,022987410E1;-4,667010605E-1;3,929390609E-1;-9,405797720E-1
4,032987410E1;-1,058323979E0;-5,474879742E-1;-2,161241293E0
4,042987410E1;-2,654667616E0;-1,809688359E-1;-6,313292384E-1
4,052987410E1;-1,326951981E0;-5,943718553E-1;-7,170031071E-1
4,062987410E1;6,287330389E-1;4,601342380E-1;4,573853612E-1
4,072987410E1;2,081981421E0;5,907067060E-1;1,663844228E0
4,082987410E1;1,969582319E0;-2,938261926E-1;2,033264875E0
4,092987410E1;1,084591269E0;3,404046595E-1;4,868595898E-1
4,102987410E1;-2,977968007E-2;1,292590857E0;-7,258606553E-1
4,112987410E1;-1,430646420E0;-1,551597714E-1;-1,541213036E0
4,122987410E1;-2,486679792E0;-1,002582550E0;-1,603826642E0
4,132987410E1;-2,183995962E0;-9,318749309E-1;-4,952589869E-1
4,142987410E1;-5,283984542E-2;7,105889916E-1;-2,666426897E-1
4,152987410E1;1,749059916E0;8,619308472E-1;1,117730737E0
4,162987410E1;2,248900414E0;5,584835410E-1;2,001499891E0
4,172987410E1;1,540449381E0;2,251038402E-1;1,185842156E0
4,182987410E1;2,724458873E-1;-1,229366288E-1;-3,514002264E-1
4,192987410E1;-8,726209998E-1;-1,493565589E-1;-1,203862667E0
4,202987410E1;-1,881923079E0;-3,608686328E-1;-1,639409542E0
4,212987410E1;-2,466521025E0;-8,704829812E-1;-6,345362663E-1
4,222987410E1;-8,371908069E-1;3,207042580E-3;-4,882340431E-1
4,232987410E1;1,242958069E0;1,008233070E0;8,935431242E-1
4,242987410E1;2,446209908E0;4,781547785E-1;1,808619261E0
4,252987410E1;1,919643998E0;2,780964077E-1;1,576948643E0
4,262987410E1;2,881756723E-1;-7,034113407E-1;2,539672256E-1
4,272987410E1;-4,302018583E-1;6,046038866E-1;-1,097877502E0
4,282987410E1;-1,175304770E0;-1,999056488E-1;-1,790751457E0
4,292987410E1;-2,105347157E0;-1,044579625E0;-7,531968355E-1
4,302987410E1;-1,979814291E0;-6,499606371E-1;-5,366451144E-1
4,312987410E1;2,956587672E-1;3,779728711E-1;4,520402849E-2
4,322987410E1;1,945758581E0;1,055117011E0;1,567632914E0
4,332987410E1;2,154827118E0;3,451388776E-1;1,771661878E0
4,342987410E1;1,307404399E0;-3,572034538E-1;7,347181439E-1
4,352987410E1;-2,993239649E-2;2,148718536E-1;-5,268712640E-1
4,362987410E1;-1,172555804E0;-5,726861581E-2;-1,212567568E0
4,372987410E1;-2,040748119E0;-6,313292384E-1;-1,205542564E0
4,382987410E1;-2,291508198E0;-9,004153609E-1;-5,285511613E-1
4,392987410E1;-5,076290369E-1;4,277583957E-1;-3,536909819E-1
4,402987410E1;1,562440634E0;1,348179579E0;9,683741331E-1
4,412987410E1;2,435367107E0;5,613851547E-1;1,833206654E0
4,422987410E1;1,492954612E0;3,572034538E-1;1,202182770E0
4,432987410E1;9,532552361E-1;-7,684684992E-1;4,002694488E-1
4,442987410E1;-1,692096710E0;-3,938553631E-1;-9,944885969E-1
4,452987410E1;-1,545183659E0;-6,123924255E-1;-9,043859839E-1
4,462987410E1;-1,950798154E0;-8,498662710E-1;-1,092990637E0
4,472987410E1;-1,772883654E0;-2,506074607E-1;-6,890559793E-1
4,482987410E1;4,060726762E-1;2,926044464E-1;-1,786780916E-2
4,492987410E1;2,037540913E0;6,444628239E-1;1,740965962E0
4,502987410E1;2,109317780E0;-1,588249579E-2;1,836260915E0
4,512987410E1;1,371850610E0;-1,134682223E-1;7,331910133E-1
4,522987410E1;-3,707951903E-1;7,788532227E-2;-6,818783283E-1
4,532987410E1;-8,465065360E-1;-5,711590052E-1;-9,947940707E-1
4,542987410E1;-1,849699974E0;-6,885978580E-1;-1,593594670E0
4,552987410E1;-1,993100524E0;-5,351179838E-1;-6,693555713E-1
4,562987410E1;-5,575672388E-1;1,838704348E-1;-5,413793325E-1
4,572987410E1;1,190423608E0;1,176831841E0;8,892670870E-1
4,582987410E1;2,112677336E0;2,777909636E-1;1,819462180E0
4,592987410E1;1,936137438E0;-1,360702366E-1;1,980119705E0
4,602987410E1;3,730859458E-1;-5,575672388E-1;2,229658216E-1
4,612987410E1;-7,170031071E-1;8,888089657E-2;-8,781188130E-1
4,622987410E1;-1,280220866E0;-4,602869749E-1;-1,326799273E0
4,632987410E1;-2,638479710E0;-2,203696370E-1;-9,289733171E-1
4,642987410E1;-1,413389444E0;-7,412849665E-1;-5,517640114E-1
4,652987410E1;6,872233748E-1;7,707592249E-1;1,511891484E-1
4,662987410E1;1,948507428E0;1,248303175E0;1,458135366E0
4,672987410E1;1,878868818E0;5,795583725E-1;2,054187059E0
4,682987410E1;7,689266205E-1;-1,025031924E0;1,343903542E0
4,692987410E1;-3,399465084E-1;1,072068512E-1;-7,906123400E-1
4,702987410E1;-9,526443481E-1;-7,024950385E-1;-1,029460669E0
4,712987410E1;-1,858252048E0;-1,295186996E0;-1,328173757E0
4,722987410E1;-2,455678225E0;-1,864666194E-1;-5,742133260E-1
4,732987410E1;-3,659082949E-1;-1,189660057E-1;-5,198463202E-1
4,742987410E1;1,925905347E0;8,426886201E-1;9,860892296E-1
4,752987410E1;2,400853157E0;4,214970022E-2;1,545183659E0
4,762987410E1;1,737758875E0;-7,870998979E-1;1,405448198E0
4,772987410E1;-3,498730659E-1;-1,424385071E0;-4,564690590E-1
4,782987410E1;-2,238821089E-1;-8,414668590E-2;-4,282165468E-1
4,792987410E1;-1,671021819E0;3,833179474E-1;-1,895056725E0
4,802987410E1;-2,266615391E0;-6,754642725E-1;-7,663304210E-1
4,812987410E1;-9,434813857E-1;-2,406809032E-1;-5,560401082E-1
4,822987410E1;6,604980230E-1;1,032973170E0;5,357288122E-1
4,832987410E1;2,139402866E0;4,236350358E-1;1,997376680E0
4,842987410E1;1,993558764E0;2,616030276E-1;1,867873192E0
4,852987410E1;1,007316828E0;-3,549126983E-1;3,454442918E-1
4,862987410E1;-1,104749799E0;3,898847401E-1;-8,944594264E-1
4,872987410E1;-1,008538485E0;-7,832819819E-1;-1,015716195E0
4,882987410E1;-2,254398108E0;-8,055785298E-1;-1,134682178E0
4,892987410E1;-2,167349815E0;-3,998112977E-1;-6,594290137E-1
4,902987410E1;1,605048478E-1;3,260493279E-1;-1,258382350E-1
4,912987410E1;1,981952310E0;1,341612816E0;1,549306989E0
4,922987410E1;2,061212063E0;3,229950070E-1;1,960113883E0
4,932987410E1;1,307251573E0;-4,324925840E-1;1,227228284E0
4,942987410E1;-5,172501206E-1;-1,117730737E0;-4,952589869E-1
4,952987410E1;-6,899722815E-1;-3,628539443E-1;-1,065196276E0
4,962987410E1;-1,763567924E0;-3,984368443E-1;-1,617112994E0
4,972987410E1;-2,418873549E0;-3,466660380E-1;-5,612324476E-1
4,982987410E1;-2,952006161E-1;-1,374446750E-1;-8,520042896E-1
4,992987410E1;1,310764074E0;1,331838965E0;1,222646832E0
5,002987410E1;1,932777643E0;4,280638099E-1;2,074498415E0
5,012987410E1;1,534646153E0;1,536326110E-1;1,729664922E0
5,022987410E1;2,838996351E-1;-1,682933718E-1;-4,685336351E-1
5,032987410E1;-3,761402667E-1;1,968513280E-1;-3,866777122E-1
5,042987410E1;-1,526399493E0;-4,935791194E-1;-3,051577330E0
5,052987410E1;-3,399923325E0;-1,089630842E0;-1,550986886E0
5,062987410E1;-1,563509583E0;-2,293951750E0;-2,386955917E-1
5,072987410E1;1,133154988E0;1,606881022E0;4,169155359E-1
5,082987410E1;1,999514699E0;9,294314981E-1;1,733024716E0
5,092987410E1;2,000278234E0;1,440114826E-1;1,767691255E0
5,102987410E1;1,262963891E0;-3,132211566E-1;8,265006542E-1
5,112987410E1;-1,934915632E-1;8,567385077E-1;-4,970915914E-1
5,122987410E1;-1,069777727E0;-9,621127695E-2;-1,329242826E0
5,132987410E1;-2,626415014E0;-1,441336513E0;-1,934915662E0
5,142987410E1;-2,574338913E0;-5,876523852E-1;-1,198059440E0
5,152987410E1;7,619016767E-1;1,751656085E-1;1,476766765E-1
5,162987410E1;2,034181356E0;1,134071350E0;8,110763431E-1
5,172987410E1;2,520735502E0;1,849394590E-1;1,979814291E0
5,182987410E1;9,584475756E-1;1,209513173E-1;1,399644971E0
5,192987410E1;1,844813079E-1;-1,369407177E0;1,518000066E-1
5,202987410E1;-4,512766898E-1;1,913535446E-1;-6,762278080E-1
5,212987410E1;-1,343445420E0;-3,581197560E-1;-1,634828091E0
5,222987410E1;-2,594192028E0;-1,058324054E-1;-1,382846236E0
5,232987410E1;-1,251815557E0;-7,040221691E-1;-6,102544069E-1
5,242987410E1;6,456845403E-1;3,892738819E-1;4,389066696E-1
5,252987410E1;2,030210733E0;6,714936495E-1;1,755779386E0
5,262987410E1;2,077705383E0;-3,665191587E-3;1,847409248E0
5,272987410E1;1,178511739E0;1,282817032E-2;4,712825418E-1
5,282987410E1;-1,021672115E-1;9,876163602E-1;-8,475755453E-1
5,292987410E1;-7,528914213E-1;-2,496911734E-1;-1,496314406E0
5,302987410E1;-1,723098159E0;-9,106473923E-1;-1,298394084E0
5,312987410E1;-2,385428667E0;-7,492262125E-1;-6,971499324E-1
5,322987410E1;-2,116648108E-1;5,189300179E-1;-5,253441334E-1
5,332987410E1;1,450957656E0;1,496008992E0;1,072984815E0
5,342987410E1;2,123672962E0;2,854267955E-1;2,005928755E0
5,352987410E1;1,720043778E0;1,539380401E-1;1,595427275E0
5,362987410E1;1,977676302E-1;7,006624341E-1;2,061670274E-2
5,372987410E1;-5,934556127E-1;5,271766782E-1;-9,224064946E-1
5,382987410E1;-1,285871387E0;-4,363104999E-1;-1,770592928E0
5,392987410E1;-2,461023331E0;-1,773494482E0;-6,438519955E-1
5,402987410E1;-1,670563698E0;-1,988366395E-1;-6,896668673E-1
5,412987410E1;4,915938079E-1;3,714060783E-1;1,901318133E-1
5,422987410E1;2,055866957E0;9,505063295E-1;1,788766146E0
5,432987410E1;2,027920008E0;-6,505715102E-2;1,863597155E0
5,442987410E1;1,291369081E0;1,496619824E-2;9,082038999E-1
5,452987410E1;-3,289509416E-1;-8,842274547E-2;-6,383541822E-1
5,462987410E1;-9,512699246E-1;-5,080871582E-1;-1,162171125E0
5,472987410E1;-1,594969153E0;-6,328563690E-1;-1,570992708E0
5,482987410E1;-2,444682598E0;-6,940956116E-1;-4,625777006E-1
5,492987410E1;-8,064948320E-1;4,841107130E-2;-6,226243973E-1
5,502987410E1;1,573436141E0;1,149801135E0;7,864890099E-1
5,512987410E1;2,187355757E0;5,546656251E-1;1,911702752E0
5,522987410E1;1,842216849E0;4,529565871E-1;1,676366925E0
5,532987410E1;3,365867436E-1;-4,289801121E-1;4,086688459E-1
5,542987410E1;-6,528622508E-1;5,589416996E-2;-9,407324791E-1
5,552987410E1;-1,139110923E0;-7,854200006E-1;-1,390329242E0
5,562987410E1;-2,291966438E0;-1,379333735E0;-9,801332951E-1
5,572987410E1;-1,793347597E0;-4,954117239E-1;-6,829473376E-1
5,582987410E1;4,686863720E-1;4,949535728E-1;2,354885489E-1
5,592987410E1;1,946522117E0;1,082147837E0;1,682322860E0
5,602987410E1;1,914604425E0;5,577199459E-1;2,100307465E0
5,612987410E1;1,361160517E0;-1,698205322E-1;7,770205736E-1
5,622987410E1;-5,134322643E-1;5,044219494E-1;-6,389650702E-1
5,632987410E1;-1,016174316E0;-5,335907936E-1;-8,752171993E-1
5,642987410E1;-1,719738364E0;-9,269880056E-1;-1,686140776E0
5,652987410E1;-2,594344616E0;-8,576548100E-1;-7,909177542E-1
5,662987410E1;-1,015563458E-1;6,291911751E-2;-5,009095073E-1
5,672987410E1;1,425301313E0;9,860892296E-1;1,349401355E0
5,682987410E1;2,150856495E0;4,641048610E-1;2,069306135E0
5,692987410E1;1,737911582E0;-1,114829071E-2;1,513418674E0
5,702987410E1;3,451388776E-1;1,795943826E-1;-2,162462920E-1
5,712987410E1;-7,791585922E-1;-1,609629989E-1;-9,132435322E-1
5,722987410E1;-1,241889000E0;-6,646214128E-1;-1,450346828E0
5,732987410E1;-2,303878307E0;-7,250970602E-1;-1,234253287E0
5,742987410E1;-1,409113407E0;-9,421069026E-1;-8,275696635E-1
5,752987410E1;6,067419052E-1;5,945246220E-1;3,089450896E-1
5,762987410E1;1,830610394E0;9,511171579E-1;1,814727902E0
5,772987410E1;1,913688064E0;6,835582256E-1;1,985770226E0
5,782987410E1;9,827294350E-1;-1,611157060E-1;8,298604488E-1
5,792987410E1;-2,499966025E-1;-5,131268129E-2;-4,816672504E-1
5,802987410E1;-1,266934514E0;-9,078984857E-1;-1,213941932E0
5,812987410E1;-1,863139033E0;-1,544878244E0;-1,342987299E0
5,822987410E1;-2,351831198E0;-5,032002330E-1;-7,533495426E-1
5,832987410E1;-4,683809280E-1;1,745547503E-1;-3,494149148E-1
5,842987410E1;1,537089705E0;5,791002512E-1;1,427592039E0
5,852987410E1;2,313804865E0;7,362453341E-1;2,051285505E0
5,862987410E1;1,825723529E0;-2,388483137E-1;1,172403097E0
5,872987410E1;2,524400651E-1;-1,557706445E-1;-8,063421398E-2
5,882987410E1;-9,796751142E-1;9,834930301E-1;-1,047328472E0
5,892987410E1;-1,320385218E0;-1,411556840E0;-7,286095023E-1
5,902987410E1;-2,237446785E0;-1,175304770E0;-1,343598127E0
5,912987410E1;-1,274264932E0;1,533271819E-1;-7,678576112E-1
5,922987410E1;5,653557777E-1;6,372851729E-1;2,994766831E-1
5,932987410E1;2,052201748E0;9,382890463E-1;1,785100937E0
5,942987410E1;2,108706713E0;3,268128932E-1;1,963320851E0
5,952987410E1;1,320537925E0;1,782199293E-1;2,435825169E-1
5,962987410E1;-3,535382748E-1;1,159116775E-1;-6,368269920E-1
5,972987410E1;-9,931141734E-1;8,093964309E-3;-1,155298948E0
5,982987410E1;-1,693471193E0;-9,040805697E-2;-2,018451452E0
5,992987410E1;-2,339613914E0;-8,614727259E-1;-6,159048676E-1
6,002987410E1;-2,730567753E-1;7,498370856E-2;-3,008511364E-1
6,012987410E1;1,371087074E0;9,332493544E-1;1,260825872E0
6,022987410E1;2,163837433E0;9,608910084E-1;2,062281132E0
6,032987410E1;1,770440221E0;4,612032473E-1;1,525788665E0
6,042987410E1;1,908953935E-1;-5,951354504E-1;-5,131268129E-2
6,052987410E1;-9,401215911E-1;-3,648392558E-1;-1,126740932E0
6,062987410E1;-1,020603061E0;-3,327688277E-1;-1,822363734E0
6,072987410E1;-2,201863766E0;-1,361771345E0;-8,124507666E-1
6,082987410E1;-1,544114590E0;-3,895792961E-1;-9,017898440E-1
6,092987410E1;1,011134744E0;8,698720932E-1;3,147483170E-1
6,102987410E1;2,311208725E0;1,347721457E0;1,761582613E0
6,112987410E1;2,039373636E0;-7,870998979E-1;1,687362552E0
6,122987410E1;1,186300278E0;1,448056102E0;5,065600276E-1
6,132987410E1;-3,466660380E-1;4,734205548E-3;-5,442809463E-1
6,142987410E1;-1,320232511E0;-9,460775256E-1;-1,466076523E-1
6,152987410E1;-1,024573684E0;-5,603161454E-1;-6,788240075E-1
6,162987410E1;-7,863363028E-1;-6,392704844E-1;-7,586946487E-1
6,172987410E1;-4,920519590E-1;-4,228714705E-1;-6,398813725E-1
6,182987410E1;-2,325869352E-1;4,688390717E-2;-2,671008408E-1
6,192987410E1;-3,144428730E-1;-5,609270334E-1;1,609629989E-1
6,202987410E1;-4,535674304E-2;2,866485119E-1;2,218967974E-1
6,212987410E1;6,673702598E-2;-1,441642046E-1;-1,658499092E-1
6,222987410E1;1,175915599E-1;-6,414084882E-2;1,484402567E-1
6,232987410E1;-1,450804994E-2;-4,039346576E-1;-3,006984293E-1
6,242987410E1;-3,750712574E-1;-3,289509416E-1;-1,237002090E-1
6,252987410E1;-7,742717117E-2;-6,919575930E-1;-6,188064814E-1
6,262987410E1;1,941024363E-1;-4,017966092E-1;-9,498954564E-2
6,272987410E1;2,084577680E-1;-4,234823287E-1;-8,168795705E-1
6,282987410E1;-4,734205827E-2;-7,284567952E-1;-5,068654418E-1
6,292987410E1;4,045455158E-1;1,002735257E0;-6,756169796E-1
6,302987410E1;4,428772926E-1;-3,371976018E-1;1,142318025E-1
6,312987410E1;5,099197626E-1;5,725334287E-1;5,583308339E-1
6,322987410E1;5,836817622E-1;2,319760770E-1;-1,106887817E0
6,332987410E1;6,398813426E-2;-2,229658216E-1;4,755585790E-1
6,342987410E1;-2,635883391E-1;3,155119121E-1;3,772092760E-1
6,352987410E1;-8,124507964E-2;-1,238834739E0;5,085453391E-1
6,362987410E1;4,019493461E-1;4,795292020E-2;4,902193695E-2
6,372987410E1;-3,178026378E-1;7,160868049E-1;-1,915062517E-1
6,382987410E1;1,785253733E-1;-1,018617824E-1;1,443169117E-1
6,392987410E1;9,468411654E-2;1,828014255E-1;3,543018550E-2
6,402987410E1;-5,039638281E-2;5,558873713E-2;3,460551500E-1
6,412987410E1;-4,870123267E-1;4,758640230E-1;-2,107485011E-2
6,422987410E1;-6,782131195E-1;-5,222897977E-2;-2,237294018E-1
6,432987410E1;2,977968007E-2;5,345070735E-2;4,845688641E-1
6,442987410E1;1,945605874E-1;-5,812382698E-1;2,913827300E-1
6,452987410E1;-4,115704596E-1;-1,021519423E0;-1,435533352E-2
6,462987410E1;-1,810604572E0;-3,535382748E-1;-6,901249886E-1
6,472987410E1;9,045386910E-1;1,323745012E0;6,183483601E-1
6,482987410E1;1,347263336E0;-2,852740586E-1;1,545183659E0
6,492987410E1;1,876730800E0;-2,286163121E-1;1,479210138E0
6,502987410E1;1,258687854E0;-1,922698319E-1;5,900958180E-1
6,512987410E1;2,762638032E-1;-8,455902338E-1;1,076650023E-1
6,522987410E1;-3,949243724E-1;2,733621933E-2;-9,816604257E-1
6,532987410E1;-1,814269722E-1;-1,552819490E0;-9,407324791E-1
6,542987410E1;-8,901833892E-1;-4,804455042E-1;-7,883216143E-1
6,552987410E1;-1,548237920E0;-3,917173445E-1;-6,285803318E-1
6,562987410E1;-1,682628274E0;-8,535314798E-1;-7,389942408E-1
6,572987410E1;-6,878342628E-1;-3,061962128E-1;-7,591527700E-1
6,582987410E1;7,773260474E-1;4,905247986E-1;-2,142609805E-1
6,592987410E1;1,754405022E0;4,601342380E-1;6,235406995E-1
6,602987410E1;1,820836544E0;2,692388594E-1;1,561829686E0
6,612987410E1;1,140790820E0;-2,225076705E-1;1,294423461E0
6,622987410E1;4,027129114E-1;-1,901012659E0;1,266018152E-1
6,632987410E1;-9,315695167E-1;-5,844452977E-1;-1,647656322E0
6,642987410E1;-1,754710376E-1;-5,134322643E-1;-1,532355428E0
6,652987410E1;-8,903360963E-1;-1,572214365E0;-1,105055213E0
6,662987410E1;-2,050674677E0;-1,144303322E0;-1,470505357E0
6,672987410E1;-7,994698882E-1;-2,064724565E-1;-1,024115562E0
6,682987410E1;1,386053205E0;7,684684992E-1;5,960517526E-1
6,692987410E1;2,211026669E0;7,644978762E-1;1,311833143E0
6,702987410E1;1,963473558E0;6,427829266E-1;1,434311628E0
6,712987410E1;6,065891981E-1;-7,811439037E-1;-4,825835302E-2
6,722987410E1;-8,139779419E-2;-5,186246037E-1;-9,807441235E-1
6,732987410E1;-1,226770163E0;-8,292495608E-1;-2,084730387E0
6,742987410E1;-1,575116038E0;-1,859779239E0;-1,479515672E0
6,752987410E1;-1,448972344E0;-1,462564111E0;-1,003346205E0
6,762987410E1;-1,226311997E-1;3,203988075E-1;-1,039387226E0
6,772987410E1;1,529453874E0;4,163046777E-1;3,483459055E-1
6,782987410E1;2,190715551E0;7,568620443E-1;1,207222462E0
6,792987410E1;1,798539996E0;1,221730467E-2;1,489747643E0
6,802987410E1;1,016937971E0;-8,735373020E-1;4,302018583E-1
6,812987410E1;-7,046330571E-1;-2,536617815E-1;-1,912466407E0
6,822987410E1;-7,463245988E-1;-1,138041973E0;-1,527621269E0
6,832987410E1;-1,601841331E0;-9,837985039E-1;-1,382235289E0
6,842987410E1;-1,919643998E0;-3,909537494E-1;-1,117272496E0
6,852987410E1;-1,130100712E-1;7,246388793E-1;-6,782131195E-1
6,862987410E1;1,791514993E0;1,119410515E0;1,473712444E0
6,872987410E1;2,003485203E0;-1,974621862E-1;1,672243595E0
6,882987410E1;1,732108355E0;-3,454442918E-1;1,354593635E0
6,892987410E1;2,924517393E-1;-2,794708610E-1;-3,101668358E-1
6,902987410E1;-7,530441284E-1;-8,148942590E-1;-3,811798990E-1
6,912987410E1;-2,279138327E0;-1,227228284E0;-1,729970336E0
6,922987410E1;-2,530051231E0;-1,194699645E0;-1,547627091E0
6,932987410E1;-4,298964143E-1;-1,349554062E0;-1,248455882E0
6,942987410E1;1,340238333E0;2,392301083E0;8,342891932E-1
6,952987410E1;1,795943856E0;6,085745096E-1;2,031737804E0
6,962987410E1;2,062128305E0;5,899431109E-1;2,109012365E0
6,972987410E1;1,285107732E0;4,973970354E-1;2,649627924E-1
6,982987410E1;-2,855795063E-2;2,572964430E0;-1,291827321E0
6,992987410E1;-7,866417170E-1;-1,218523502E0;-1,210276723E0
7,002987410E1;-1,959350228E0;-6,905831695E-1;-9,088147879E-1
7,012987410E1;-2,188577414E0;-9,494373202E-1;-7,866417170E-1
7,022987410E1;-3,280346394E-1;3,543018550E-2;-4,859432876E-1
7,032987410E1;1,559691668E0;9,915869832E-1;1,577712178E0
7,042987410E1;1,692096710E0;-1,618792862E-1;1,569618225E0
7,052987410E1;1,520443559E0;-8,400924206E-1;1,682475567E0
7,062987410E1;-7,102835774E-1;-8,133670688E-1;-1,960877478E-1
7,072987410E1;-6,441574097E-1;-1,368338168E-1;-4,178318381E-1
7,082987410E1;-1,143692493E0;-8,909469843E-1;-1,707368374E0
7,092987410E1;-1,616196752E0;-6,663012505E-1;-8,002334833E-1
7,102987410E1;-1,298394084E0;-1,570381880E0;-5,752823353E-1
7,112987410E1;5,693264008E-1;4,108068645E-1;1,687515229E-1
7,122987410E1;1,372156024E0;3,943135142E-1;8,396342993E-1
7,132987410E1;1,795791149E0;-1,058171272E0;1,663233399E0
7,142987410E1;9,628763199E-1;-3,468187451E-1;1,113912821E0
7,152987410E1;-4,001167417E-1;-5,856670737E-1;-9,187413454E-1
7,162987410E1;-1,623374343E0;-1,596954465E0;-1,561829686E0
7,172987410E1;-1,720196486E0;-1,753488660E0;-1,147968531E0
7,182987410E1;-1,326188445E0;-7,244861722E-1;-1,141401768E0
7,192987410E1;7,675521970E-1;-3,162754774E-1;5,422956347E-1
7,202987410E1;2,170709610E0;1,178664446E0;2,040442705E0
7,212987410E1;1,865582466E0;9,048441648E-1;1,932777643E0
7,222987410E1;-3,165809214E-1;-1,116814375E0;-2,089159191E-1
7,232987410E1;-1,256855249E0;-8,112290502E-1;-1,167516232E0
7,242987410E1;-1,183398724E0;8,649851680E-1;-1,448361516E0
7,252987410E1;-2,222175121E0;-5,028948188E-1;-8,445212245E-1
7,262987410E1;-5,856670737E-1;1,192714423E-1;-2,131919712E-1
7,272987410E1;1,542587519E0;1,606270194E0;9,443976879E-1
7,282987410E1;1,609782696E0;3,344487250E-1;2,394897223E0
7,292987410E1;1,419345379E0;-1,336267740E-1;1,251052022E0
7,302987410E1;-7,330382615E-2;1,391398311E0;-8,449793458E-1
7,312987410E1;-1,060156584E0;-7,264714837E-1;-1,407891631E0
7,322987410E1;-1,658193707E0;-9,460775256E-1;-1,412320495E0
7,332987410E1;-1,656055689E0;-4,903720617E-1;-9,034696817E-1
7,342987410E1;1,788308024E-1;4,451680481E-1;2,545780838E-1
7,352987410E1;1,618334770E0;1,529301167E0;2,002110958E0
7,362987410E1;1,762346268E0;8,788823485E-1;1,967597008E0
7,372987410E1;1,246165112E-1;5,528330207E-1;3,452915847E-1
7,382987410E1;-9,382890463E-1;-1,211193085E0;-7,800748944E-1
7,392987410E1;-1,079398870E0;-1,007164121E0;-1,746921897E0
7,402987410E1;-2,314873934E0;-7,834346890E-1;-8,842274547E-1
7,412987410E1;-9,431759119E-1;-1,258535147E0;-4,410447180E-1
7,422987410E1;1,764789701E0;1,146594048E0;1,826334357E0
7,432987410E1;2,067626238E0;1,725694351E-2;1,980425119E0
7,442987410E1;1,571603537E0;-8,043568134E-1;1,691944003E0
7,452987410E1;-1,383609772E-1;-7,773260474E-1;-1,148426682E-1
7,462987410E1;-6,719517708E-1;3,985895589E-2;-1,060156584E0
7,472987410E1;-8,860600591E-1;-1,818851233E-1;-1,709811807E0
7,482987410E1;-1,723861694E0;-2,374738604E-1;-1,155146122E0
7,492987410E1;-1,009302139E0;-7,745771408E-1;-7,803803682E-1
7,502987410E1;6,084218025E-1;4,147774875E-1;3,391829133E-1
7,512987410E1;1,561982393E0;6,443101168E-1;1,699427128E0
7,522987410E1;1,620320082E0;1,826487035E-1;2,308154345E0
7,532987410E1;6,414085031E-1;-1,074359298E0;1,237612963E0
7,542987410E1;-2,808452845E-1;4,045455158E-1;-8,321511745E-1
7,552987410E1;-7,073819637E-1;-7,887797356E-1;-1,162934661E0
7,562987410E1;-1,411251426E0;-9,482156038E-1;-1,809077382E0
7,572987410E1;-1,907274008E0;-1,054047942E0;-9,886853695E-1
7,582987410E1;-7,599163651E-1;-3,294090927E-1;-6,134614348E-1
7,592987410E1;8,828529716E-1;6,632469296E-1;7,617489696E-1
7,602987410E1;1,714393258E0;5,508477092E-1;2,033417702E0
7,612987410E1;1,419803500E0;3,862195611E-1;2,226909161E0
7,622987410E1;7,987062931E-1;-6,866125464E-1;7,867944241E-1
7,632987410E1;-2,370157093E-1;1,438282251E0;-1,076650023E0
7,642987410E1;-5,820018649E-1;-9,576839805E-1;-1,526094079E0
7,652987410E1;-1,472337961E0;-7,535023093E-1;-1,473254204E0
7,662987410E1;-1,970345855E0;-7,661777139E-1;-5,722280145E-1
7,672987410E1;-4,213443100E-1;-1,740965992E-2;-4,352414906E-1
7,682987410E1;1,271515965E0;1,680490255E0;1,379181027E0
7,692987410E1;1,455844641E0;2,016618967E0;1,646434546E0
7,702987410E1;1,299310327E0;4,952589869E-1;1,567022085E0
7,712987410E1;4,929682612E-1;-1,071152210E0;2,400700450E-1
7,722987410E1;-7,878634334E-1;1,615738571E-1;-1,235933065E0
7,732987410E1;-7,887797356E-1;-7,567093372E-1;-1,797623754E0
7,742987410E1;-1,344208956E0;-1,728748679E0;-8,604037166E-1
7,752987410E1;-1,744478464E0;-1,272126883E-1;-9,659306407E-1
7,762987410E1;-1,160643995E-1;2,145664245E-1;-4,763221741E-1
7,772987410E1;1,530370116E0;1,632842779E0;1,800372601E0
7,782987410E1;1,591303945E0;1,516472995E-1;1,984090328E0
7,792987410E1;1,461189628E0;6,123924255E-2;1,494787216E0
7,802987410E1;1,409571618E-1;3,578143120E-1;-1,171334088E-1
7,812987410E1;-4,239404798E-1;5,067127347E-1;-1,077413559E0
7,822987410E1;-9,969320893E-1;-3,165809214E-1;-1,570229053E0
7,832987410E1;-1,608408213E0;-1,033889413E0;-1,276097536E0
7,842987410E1;-1,476461291E0;-5,494732857E-1;-6,719517708E-1
7,852987410E1;2,834414840E-1;7,496843934E-1;-9,834930301E-2
7,862987410E1;1,498147011E0;9,195048809E-1;1,822058320E0
7,872987410E1;1,443169117E0;7,365507483E-1;2,468506575E0
7,882987410E1;1,050993681E0;-2,509129047E-1;1,346194267E0
7,892987410E1;-3,584251702E-1;-8,138252497E-1;-3,888157308E-1
7,902987410E1;-6,783658266E-1;3,465133011E-1;-1,410946012E0
7,912987410E1;-9,072875977E-1;-1,574046969E0;-1,595121861E0
7,922987410E1;-1,970803976E0;-7,617489696E-1;-9,964739084E-1
7,932987410E1;-9,178250432E-1;-9,616546035E-1;-9,482156038E-1
7,942987410E1;9,106473923E-1;1,355357289E0;4,647157490E-1
7,952987410E1;1,684460878E0;5,187773108E-1;1,931250453E0
7,962987410E1;1,561066151E0;5,064072609E-1;2,066251755E0
7,972987410E1;9,925032854E-1;1,574505210E0;3,472768962E-1
7,982987410E1;3,222314268E-2;-4,751004577E-1;-5,876523852E-1
7,992987410E1;-7,594582438E-1;-3,071125150E-1;-1,395063519E0
8,002987410E1;-1,275639296E0;-3,811798990E-1;-1,691333175E0
8,012987410E1;-2,303114653E0;-6,148358583E-1;-1,107345939E0
8,022987410E1;-6,411030889E-1;-3,179553747E-1;-5,180137157E-1
8,032987410E1;1,181871533E0;7,118107080E-1;8,388707042E-1
8,042987410E1;1,723250866E0;8,495608568E-1;2,114204645E0
8,052987410E1;1,454012036E0;1,308473349E0;1,821447492E0
8,062987410E1;4,037819207E-1;-4,819726646E-1;-8,078692853E-2
8,072987410E1;-3,753767014E-1;-2,745839357E-1;-6,675229669E-1
8,082987410E1;-6,023131609E-1;2,214386500E-2;-1,709353685E0
8,092987410E1;-1,439503908E0;-8,582656980E-1;-1,147968531E0
8,102987410E1;-1,914146304E0;-2,709187269E-1;-1,014799833E0
8,112987410E1;-3,191770986E-2;-2,417499274E-1;-6,748533845E-1
8,122987410E1;1,537395120E0;1,565494895E0;1,760055542E0
8,132987410E1;1,875814438E0;-9,224065393E-2;2,067167997E0
8,142987410E1;1,450804949E0;-5,212207437E-1;1,357800722E0
8,152987410E1;9,330966324E-2;1,110553026E0;-7,464773059E-1
8,162987410E1;-4,674646258E-1;-1,452332139E-1;-7,519751191E-1
8,172987410E1;-1,097724795E0;7,753407359E-1;-1,920865774E0
8,182987410E1;-2,138333797E0;-1,445001721E0;-9,738719463E-1
8,192987410E1;-1,286940336E0;-1,280373573E0;-4,787656367E-1
8,202987410E1;4,550946057E-1;1,942551434E-1;5,132794976E-1
8,212987410E1;1,797470927E0;9,309586287E-1;1,434464335E0
8,222987410E1;1,454317451E0;3,897320330E-1;1,944994926E0
8,232987410E1;7,031059265E-1;-8,174903989E-1;1,036180139E0
8,242987410E1;-1,985312067E-2;-1,960877478E-1;-3,407101035E-1
8,252987410E1;-6,249151230E-1;-2,493857294E-1;-1,499674201E0
8,262987410E1;-1,450652242E0;-2,028072625E-1;-1,442405581E0
8,272987410E1;-2,061822891E0;-9,053022861E-1;-1,116661668E0
8,282987410E1;-5,374087095E-1;4,810563922E-1;-7,619016767E-1
8,292987410E1;1,075122833E0;7,069237828E-1;1,078635335E0
8,302987410E1;1,945605755E0;1,018617824E-1;2,480112791E0
8,312987410E1;1,503339410E0;5,966626406E-1;2,009441137E0
8,322987410E1;5,366451144E-1;-2,302961946E-1;2,892446816E-1
8,332987410E1;-7,528914213E-1;-3,901901841E-1;-1,342834473E0
8,342987410E1;-4,938845634E-1;-1,571145415E0;-1,199281216E0
8,352987410E1;-1,390787482E0;-9,682214260E-1;-1,165530920E0
8,362987410E1;-2,052354574E0;-4,732678533E-1;-9,529497623E-1
8,372987410E1;-2,901609987E-2;1,450804994E-2;-2,429716438E-1
8,382987410E1;1,516472936E0;9,644035101E-1;1,484097123E0
8,392987410E1;1,691638589E0;-1,455386430E-1;1,853823304E0
8,402987410E1;1,179275393E0;-7,498370856E-2;1,763720632E0
8,412987410E1;2,602286041E-1;1,112843752E0;-2,380847335E-1
8,422987410E1;-6,546948552E-1;-3,539963961E-1;-8,849910498E-1
8,432987410E1;-4,508185387E-1;-7,331910133E-1;-1,391551018E0
8,442987410E1;-1,491580248E0;-6,724098921E-1;-1,083980322E0
8,452987410E1;-1,776243448E0;-7,157813311E-1;-8,539896011E-1
8,462987410E1;1,792889535E-1;1,632537395E-1;-2,223549485E-1
8,472987410E1;1,434158921E0;1,316414595E0;1,426523089E0
8,482987410E1;1,470810771E0;3,388774991E-1;2,384970665E0
8,492987410E1;1,108720422E0;-1,525636017E-1;1,599550605E0
8,502987410E1;1,731802970E-1;-7,423539758E-1;-3,207042515E-1
8,512987410E1;-4,065308273E-1;1,737911552E-1;-1,227686405E0
8,522987410E1;-8,552113175E-1;-1,453401089E0;-2,145205975E0
8,532987410E1;-1,714240551E0;-7,773260474E-1;-1,390940189E0
8,542987410E1;-1,387733102E0;-6,079636216E-1;-7,018841505E-1
8,552987410E1;6,308710575E-1;1,486082435E0;-1,464549452E-1
8,562987410E1;1,591303945E0;1,362076759E0;1,270599723E0
8,572987410E1;1,696372747E0;9,198103547E-1;2,625346184E0
8,582987410E1;1,363756657E0;1,698205322E-1;1,357800722E0
8,592987410E1;-1,377501190E-1;-2,231185287E-1;-1,484402567E-1
8,602987410E1;-7,443392873E-1;5,972734690E-1;-1,227380991E0
8,612987410E1;-9,520334601E-1;-7,487680912E-1;-1,968360543E0
8,622987410E1;-1,946522117E0;-5,978843570E-1;-1,154993415E0
8,632987410E1;-1,236696720E0;-6,508769393E-1;-1,215163708E0
8,642987410E1;2,825251818E-1;-1,342376322E-1;5,459607840E-1
8,652987410E1;2,166586399E0;1,336573124E0;2,145511389E0
8,662987410E1;1,493412852E0;-2,707660198E-1;2,058768511E0
8,672987410E1;3,449861407E-1;-4,405865669E-1;-1,314887404E-1
8,682987410E1;-8,755226135E-1;2,432770878E-1;-1,219439745E0
8,692987410E1;-1,080315232E0;-1,353066564E-1;-2,314415693E0
8,702987410E1;-2,529287577E0;-1,332755208E0;-1,278235555E0
8,712987410E1;-4,008803070E-1;3,145955876E-2;-4,584543705E-1
8,722987410E1;1,349706769E0;2,018146038E0;1,100931883E0
8,732987410E1;1,902539849E0;1,070694089E0;2,514168739E0
8,742987410E1;1,373835921E0;-1,980730593E-1;1,691485882E0
8,752987410E1;3,878994286E-2;-8,417723179E-1;-2,160935849E-1
8,762987410E1;-9,356928468E-1;3,139847219E-1;-1,268919826E0
8,772987410E1;-1,820225716E0;-1,658499092E-1;-2,359008789E0
8,782987410E1;-1,933235765E0;-6,554583907E-1;-1,178359032E0
8,792987410E1;1,800525337E-1;4,079052806E-1;-2,635883391E-1
8,802987410E1;1,854434133E0;1,740507841E0;1,992031574E0
8,812987410E1;1,662622452E0;5,279402733E-1;2,471560717E0
8,822987410E1;8,484918475E-1;-4,337143302E-1;1,464549422E0
8,832987410E1;-1,012509167E-1;-2,309070677E-1;-6,609562039E-1
8,842987410E1;-9,037751555E-1;-2,440406680E-1;-1,474475980E0
8,852987410E1;-2,016618967E0;-1,757459283E0;-1,717600346E0
8,862987410E1;-1,805565000E0;-1,109942198E0;-9,211847782E-1
8,872987410E1;3,773620129E-1;9,330966324E-2;2,052507252E-1
8,882987410E1;2,029905319E0;1,992031574E0;2,193464279E0
8,892987410E1;1,337031364E0;6,579018831E-1;2,436283350E0
8,902987410E1;-7,192938030E-2;-1,569618225E0;1,254411817E0
8,912987410E1;-7,170031071E-1;-3,155119121E-1;-1,422247052E0
8,922987410E1;-8,712465763E-1;-1,010218382E0;-1,774105430E0
8,932987410E1;-2,134668589E0;-1,195768714E0;-1,298088670E0
8,942987410E1;-4,050036669E-1;2,096794993E-1;-8,448266387E-1
8,952987410E1;1,069319606E0;4,647157490E-1;1,085812926E0
8,962987410E1;1,885588288E0;7,293730974E-1;2,501798630E0
8,972987410E1;1,393841743E0;1,864666194E-1;1,992795110E0
8,982987410E1;5,406157300E-2;-8,355109096E-1;-1,296561509E-1
8,992987410E1;-9,082038999E-1;7,515169382E-1;-1,813658953E0
9,002987410E1;-9,605855942E-1;-1,824043632E0;-1,744936585E0
9,012987410E1;-2,335185051E0;-8,342891932E-1;-1,354899168E0
9,022987410E1;-2,359467000E-1;8,016079068E-1;-4,761694670E-1
9,032987410E1;1,697289109E0;1,724167109E0;1,989588141E0
9,042987410E1;1,650863290E0;3,356704414E-1;2,344653606E0
9,052987410E1;1,004873276E0;-4,405865669E-1;1,347568750E0
9,062987410E1;-2,602286041E-1;-5,024366826E-2;-5,485569835E-1
9,072987410E1;-9,123272300E-1;-4,970915914E-1;-1,340543747E0
9,082987410E1;-2,213011980E0;-1,448056102E0;-2,402380228E0
9,092987410E1;-1,941635132E0;-1,532813668E0;-1,258382440E0
9,102987410E1;3,837760985E-1;4,346306324E-1;1,043052375E-1
9,112987410E1;2,067778826E0;1,823127270E0;2,025934696E0
9,122987410E1;1,728595972E0;1,950187236E-1;2,117259026E0
9,132987410E1;6,991352439E-1;-3,249803185E-1;5,305364728E-1
9,142987410E1;-2,229658142E-2;1,271515965E0;-8,796459436E-1
9,152987410E1;-6,860016584E-1;-2,803871334E-1;-1,694234729E0
9,162987410E1;-1,974927306E0;-1,081536889E0;-1,419803500E0
9,172987410E1;-1,335198760E0;-1,190423608E0;-9,173668623E-1
9,182987410E1;4,891503453E-1;5,367978215E-1;3,743076921E-1
9,192987410E1;1,627650499E0;7,670940161E-1;2,023338318E0
9,202987410E1;1,687362552E0;1,786780916E-2;2,469728231E0
9,212987410E1;3,645338416E-1;5,019785166E-1;3,179553747E-1
9,222987410E1;-1,516472995E-1;3,138320148E-1;-1,357495308E0
9,232987410E1;-6,713408828E-1;-7,084509730E-1;-1,565494895E0
9,242987410E1;-2,170251608E0;-4,069889784E-1;-1,580002904E0
9,252987410E1;-1,135140300E0;-1,133765936E0;-1,029766083E0
9,262987410E1;7,420485616E-1;5,951354504E-1;4,859432876E-1
9,272987410E1;1,735468149E0;1,060156584E0;2,325258493E0
9,282987410E1;1,401019454E0;3,116939962E-1;2,329381943E0
9,292987410E1;7,444919944E-1;-4,470006526E-1;7,130324841E-1
9,302987410E1;-7,020368576E-1;-4,520402849E-1;-1,056949615E0
9,312987410E1;-8,565858006E-1;-9,726501703E-1;-1,253800869E0
9,322987410E1;-2,286010504E0;-1,347110629E0;-1,852143407E0
9,332987410E1;-1,270294309E0;-1,339169383E0;-7,096726894E-1
9,342987410E1;5,855143666E-1;3,193297982E-1;3,767511547E-1
9,352987410E1;1,433242559E0;1,121701360E0;2,143068075E0
9,362987410E1;1,376584888E0;4,060726762E-1;2,497675180E0
9,372987410E1;6,922630668E-1;-4,221078753E-1;1,097266674E0
9,382987410E1;-2,179261744E-1;1,362534881E0;-1,135751247E0
9,392987410E1;-8,119926453E-1;-1,209513173E-1;-1,232726097E0
9,402987410E1;-1,540143967E0;-1,767080426E0;-1,871385694E0
9,412987410E1;-2,024712801E0;-6,994407177E-1;-1,015868902E0
9,422987410E1;3,584251702E-1;5,757404864E-2;-7,040221989E-2
9,432987410E1;1,322981358E0;1,769829273E0;2,126116514E0
9,442987410E1;1,445459843E0;3,156646192E-1;2,398257017E0
9,452987410E1;8,874344826E-1;-6,241515875E-1;1,607797384E0
9,462987410E1;-1,154535338E-1;1,018159628E0;-8,161159754E-1
9,472987410E1;-5,083925724E-1;1,722639948E-1;-1,341918230E0
9,482987410E1;-1,420872569E0;-5,879577994E-1;-2,441781044E0
9,492987410E1;-1,875356317E0;-9,582948685E-1;-9,561568499E-1
9,502987410E1;-7,773260027E-2;2,328923792E-1;-7,377725244E-1
9,512987410E1;1,276097536E0;1,194699645E0;1,122464895E0
9,522987410E1;1,741271377E0;9,537133574E-1;2,100460052E0
9,532987410E1;1,040456176E0;5,497786999E-1;1,664913177E0
9,542987410E1;-8,872817457E-2;-1,114370942E0;1,438587606E-1
9,552987410E1;-6,097962260E-1;5,539020896E-1;-1,164003730E0
9,562987410E1;-9,448558092E-1;-9,074403048E-1;-1,674992561E0
9,572987410E1;-1,852754235E0;-9,179777503E-1;-1,025795460E0
9,582987410E1;-7,982481718E-1;-2,516764700E-1;-1,030529618E0
9,592987410E1;9,847147465E-1;1,118646979E0;7,415903807E-1
9,602987410E1;1,780366778E0;8,280278444E-1;2,271960497E0
9,612987410E1;1,454012036E0;9,477574229E-1;1,964695334E0
9,622987410E1;2,260201424E-1;-1,183551401E-1;4,802927971E-1
9,632987410E1;-9,531024694E-1;-3,669773042E-1;-8,733845949E-1
9,642987410E1;-7,034113407E-1;-9,158397317E-1;-1,128115416E0
9,652987410E1;-1,588860512E0;-5,798638463E-1;-1,382235289E0
9,662987410E1;-1,994627714E0;-1,021672130E0;-1,445612550E0
9,672987410E1;6,925684810E-1;6,826419234E-1;4,596760869E-2
9,682987410E1;1,793194890E0;1,210887671E0;2,231948853E0
9,692987410E1;1,676977873E0;2,988658249E-1;2,058921337E0
9,702987410E1;6,798930168E-1;6,944010854E-1;6,653849483E-1
9,712987410E1;-1,510364264E-1;1,318552613E0;-1,330006361E0
9,722987410E1;-5,131267905E-1;9,468411095E-3;-1,332297087E0
9,732987410E1;-1,657582879E0;-6,776022911E-1;-2,158492327E0
9,742987410E1;-2,032348633E0;-1,187827468E0;-1,116203547E0
9,752987410E1;3,602577746E-1;5,148066878E-1;-4,407392740E-1
9,762987410E1;1,463327646E0;1,236238599E0;1,762498975E0
9,772987410E1;1,487609625E0;9,275988936E-1;2,394897223E0
9,782987410E1;9,541715384E-1;-1,934915632E-1;1,446681619E0
9,792987410E1;-4,790710807E-1;-1,430951834E0;-6,400340796E-1
9,802987410E1;-6,998988390E-1;-2,684752643E-1;-1,075122833E0
9,812987410E1;-8,901833892E-1;2,428189293E-2;-1,247844934E0
9,822987410E1;-1,334282398E0;-3,660610020E-1;-1,208291411E0
9,832987410E1;-9,543242455E-1;-1,260062337E0;-8,071057200E-1
9,842987410E1;-1,948660165E-1;2,441933751E-1;-2,467895597E-1
9,852987410E1;2,380389214E0;1,591609359E0;2,959642172E0
9,862987410E1;1,445765376E0;9,993755221E-1;2,189188242E0
9,872987410E1;4,764748737E-2;1,991420686E-1;4,524984360E-1
9,882987410E1;-4,758640230E-1;1,434006095E-1;-8,666650653E-1
9,892987410E1;-8,081747293E-1;-1,169806957E0;-1,490816593E0
9,902987410E1;-1,855197787E0;-3,507893682E-1;-1,482569933E0
9,912987410E1;-8,900306821E-1;-7,942775488E-1;-1,307098866E0
9,922987410E1;1,079704285E0;7,539604306E-1;3,504839242E-1
9,932987410E1;1,848936439E0;7,192938328E-1;2,304336309E0
9,942987410E1;1,262200356E0;4,312708676E-1;2,336254120E0
9,952987410E1;-1,664607786E-2;-1,143234253E0;5,152648091E-1
9,962987410E1;-1,501201391E-1;5,222898126E-1;-1,106429696E0
9,972987410E1;-1,017396092E0;-1,863138974E-1;-2,190868139E0
9,982987410E1;-2,384207010E0;-1,043968678E0;-1,758528352E0
9,992987410E1;-1,035722017E0;-9,483683109E-2;-1,348026872E0
1,000298741E2;1,208596945E0;2,085188627E0;2,180788994E0
1,001298741E2;1,627344966E0;4,754058719E-1;2,483625412E0
1,002298741E2;1,279915452E0;1,408044398E-1;1,893376827E0
1,003298741E2;6,679811478E-1;-1,301448345E0;4,882340431E-1
1,004298741E2;-1,111163855E0;5,322163701E-1;-1,606728315E0
1,005298741E2;-6,495024562E-1;-7,556403279E-1;-1,402699351E0
1,006298741E2;-1,449125051E0;-1,818851233E-1;-1,397506952E0
1,007298741E2;-1,193325281E0;-2,443460971E-1;-1,070235968E0
1,008298741E2;5,002986193E-1;1,049924612E0;6,414085031E-1
1,009298741E2;1,279915452E0;9,755517840E-1;2,158645153E0
1,010298741E2;1,212567568E0;7,895433158E-2;2,515542984E0
1,011298741E2;3,203988075E-1;-3,904955983E-1;8,720101118E-1
1,012298741E2;4,230241850E-2;-1,577559561E-1;-3,426954150E-1
1,013298741E2;-6,983717084E-1;-7,640396953E-1;-2,107027054E0
1,014298741E2;-1,511891484E0;-1,146441340E0;-1,595427275E0
1,015298741E2;-1,471421719E0;-9,718865752E-1;-1,031140566E0
1,016298741E2;3,613267839E-1;8,393288255E-1;-9,178250283E-2
1,017298741E2;1,189507365E0;4,723515511E-1;2,072360277E0
1,018298741E2;1,243568897E0;9,908234477E-1;2,697886467E0
1,019298741E2;8,333728909E-1;3,207042580E-3;1,440420270E0
1,020298741E2;-4,459316432E-1;-6,096435189E-1;-5,175555944E-1
1,021298741E2;-9,929614663E-1;-2,487748712E-1;-1,157131433E0
1,022298741E2;-1,593136549E0;-9,286679029E-1;-1,514182210E0
1,023298741E2;-1,670869112E0;-1,347110629E0;-1,188438296E0
1,024298741E2;-6,215553731E-2;5,572618246E-1;-7,400632501E-1
1,025298741E2;1,363145828E0;1,643380284E0;1,763567924E0
1,026298741E2;1,359175205E0;1,104749799E0;2,516612053E0
1,027298741E2;8,581129313E-1;-2,901609838E-1;1,643685699E0
1,028298741E2;-7,620543987E-2;-2,611449063E-1;-5,723807216E-1
1,029298741E2;-4,266893864E-1;2,646573782E-1;-9,802860022E-1
1,030298741E2;-1,114829063E0;-5,254968405E-1;-2,224465847E0
1,031298741E2;-1,869553089E0;-7,125743032E-1;-1,127962708E0
1,032298741E2;-4,489859641E-1;-4,447098970E-1;-5,929974318E-1
1,033298741E2;1,097724795E0;1,010523796E0;1,032209516E0
1,034298741E2;1,441489220E0;7,597636580E-1;2,407267332E0
1,035298741E2;1,090089083E0;-1,363756657E-1;1,716378570E0
1,036298741E2;3,417791128E-1;-1,235780358E0;-1,482875347E-1
1,037298741E2;-5,412266254E-1;2,661845386E-1;-1,480584621E0
1,038298741E2;-9,150761366E-1;-2,675589919E-1;-1,869705796E0
1,039298741E2;-1,887420893E0;-8,770498037E-1;-1,612073421E0
1,040298741E2;-4,995350540E-1;-3,237585723E-1;-6,608034968E-1
1,041298741E2;1,379486442E0;1,128420830E0;1,781283021E0
1,042298741E2;1,575116038E0;1,045190454E0;2,384512424E0
1,043298741E2;1,017701507E0;-3,541491330E-1;1,983784914E0
1,044298741E2;-2,498438805E-1;-1,135293007E0;-5,743660331E-1
1,045298741E2;-7,774787545E-1;1,638645977E-1;-1,491122007E0
1,046298741E2;-1,346194267E0;-6,724098921E-1;-2,732705593E0
1,047298741E2;-1,976301789E0;-7,741189599E-1;-1,245554209E0
1,048298741E2;-1,000291854E-1;5,125159621E-1;-5,940664560E-2
1,049298741E2;1,282969713E0;1,873523712E0;1,994780421E0
1,050298741E2;1,291063666E0;5,369505286E-1;2,655583858E0
1,051298741E2;1,022893906E0;1,511891484E-1;8,746063113E-1
1,052298741E2;-2,675589919E-1;2,296853364E-1;-8,790351152E-1
1,053298741E2;-9,954048991E-1;-5,244278312E-1;-1,537700534E0
1,054298741E2;-1,651779652E0;-1,171639562E0;-1,918880463E0
1,055298741E2;-1,173930287E0;-4,865541756E-1;-1,110858440E0
1,056298741E2;6,041457057E-1;6,120869517E-1;6,281222105E-1
1,057298741E2;1,844965816E0;1,109789491E0;2,466826677E0
1,058298741E2;1,324508548E0;-3,909537494E-1;2,110844851E0
1,059298741E2;2,568688393E-1;-4,575380683E-1;1,566869318E-1
1,060298741E2;-4,831944108E-1;5,396994352E-1;-1,010065675E0
1,061298741E2;-1,151481032E0;-7,715228200E-1;-2,103819847E0
1,062298741E2;-1,470963478E0;-1,058782220E0;-1,131169677E0
1,063298741E2;-7,950411439E-1;-6,062837839E-1;-9,479101300E-1
1,064298741E2;6,227771044E-1;8,101600409E-1;3,611740768E-1
1,065298741E2;1,522123456E0;1,090089083E0;2,127643585E0
1,066298741E2;1,226006508E0;-4,993823543E-2;2,164295673E0
1,067298741E2;6,097962260E-1;2,869539559E-1;8,839219809E-1
1,068298741E2;-4,576907754E-1;-2,234239578E-1;-7,524332404E-1
1,069298741E2;-6,890559793E-1;4,969388843E-1;-1,518305540E0
1,070298741E2;-1,306946158E0;-9,770789742E-1;-1,706604719E0
1,071298741E2;-2,038151979E0;-4,129449129E-1;-8,167268038E-1
1,072298741E2;-3,559817076E-1;4,627304152E-2;-6,407976151E-1
1,073298741E2;1,443780065E0;1,995544076E0;1,328021049E0
1,074298741E2;1,521359921E0;7,276932001E-1;7,910705209E-1
1,075298741E2;1,643838406E0;-4,088215530E-1;2,818073988E0
1,076298741E2;8,200865984E-1;-2,432618141E0;5,215262175E-1
1,077298741E2;7,849618196E-1;3,371670723E0;-1,588707805E0
1,078298741E2;-5,905539989E-1;8,407033086E-1;-1,851532578E0
1,079298741E2;-1,668731093E0;-1,427133918E0;-1,742187738E0
1,080298741E2;-1,286024094E0;-4,022547603E-1;-9,416487813E-1
1,081298741E2;2,316706479E-1;8,744536042E-1;-1,505782902E-1
1,082298741E2;1,222188592E0;1,640784025E0;1,981646895E0
1,083298741E2;1,025031924E0;7,440338731E-1;2,606561899E0
1,084298741E2;6,638578176E-1;1,356120855E-1;1,088103771E0
1,085298741E2;-2,110539377E-1;2,472477108E-1;-6,380487680E-1
1,086298741E2;-6,690501571E-1;3,926336467E-1;-7,796167731E-1
1,087298741E2;-9,259189963E-1;1,786780916E-2;-1,477988482E0
1,088298741E2;-1,749365330E0;-1,107040524E0;-8,840747476E-1
1,089298741E2;-1,579544783E0;-5,157229900E-1;-9,335548282E-1
1,090298741E2;2,701551616E-1;6,409503818E-1;-7,299839705E-2
1,091298741E2;1,069777727E0;1,324508548E0;1,765400529E0
1,092298741E2;1,045495868E0;9,199630618E-1;2,239584684E0
1,093298741E2;9,767735004E-1;1,048550248E0;1,496314406E0
1,094298741E2;1,014036313E-1;-5,488623977E-1;-1,264491081E-1
1,095298741E2;-4,349360466E-1;7,443392873E-1;-8,859072924E-1
1,096298741E2;-6,878342628E-1;3,376557529E-1;-1,708742857E0
1,097298741E2;-1,857488513E0;-7,837401032E-1;-1,323134065E0
1,098298741E2;-1,731650233E0;-7,718282342E-1;-9,399688840E-1
1,099298741E2;-3,930917978E-1;1,689042449E-1;-2,014328092E-1
1,100298741E2;9,440922141E-1;1,092379808E0;1,361313224E0
1,101298741E2;1,489594936E0;9,911288619E-1;2,343737125E0
1,102298741E2;9,758572578E-1;3,445279896E-1;2,155437946E0
1,103298741E2;-2,580905706E-2;-6,675229669E-1;2,974913716E-1
1,104298741E2;-9,637926221E-1;6,482807398E-1;-1,077260852E0
1,105298741E2;-1,007622242E0;5,861251950E-1;-1,934152126E0
1,106298741E2;-1,681406617E0;-9,998337030E-1;-1,434464335E0
1,107298741E2;-1,456760883E0;-2,217440903E-1;-9,329439402E-1
1,108298741E2;1,783726513E-1;1,002124429E0;4,083634019E-1
1,109298741E2;1,165836334E0;1,064585447E0;2,219273329E0
1,110298741E2;1,210276723E0;3,342960179E-1;2,231796265E0
1,111298741E2;8,820894361E-1;6,745479703E-1;1,004109740E0
1,112298741E2;-2,890919745E-1;9,992228150E-1;-9,074403048E-1
1,113298741E2;-7,362453341E-1;3,882048726E-1;-1,316872716E0
1,114298741E2;-1,839620709E0;4,657847434E-2;-1,817629576E0
1,115298741E2;-2,129170895E0;-9,334021211E-1;-9,946413636E-1
1,116298741E2;-5,259549618E-1;-4,474587739E-2;4,589125216E-1
1,117298741E2;8,417723179E-1;1,585500717E0;1,589318633E0
1,118298741E2;1,199892044E0;6,806566119E-1;3,383124352E0
1,119298741E2;8,811730891E-2;-3,089450896E-1;1,110247612E0
1,120298741E2;-4,691445231E-1;5,636758804E-1;-4,017966092E-1
1,121298741E2;-8,994990587E-1;9,289733171E-1;-1,946827531E0
1,122298741E2;-1,986381054E0;-2,922990322E-1;-2,442391872E0
1,123298741E2;-1,878716111E0;-1,276402950E0;-9,454666972E-1
1,124298741E2;1,275181174E-1;4,427245855E-1;2,364048511E-1
1,125298741E2;1,336267710E0;1,210429430E0;1,886504650E0
1,126298741E2;1,256855249E0;5,148066878E-1;2,629011393E0
1,127298741E2;6,239988208E-1;-6,522513628E-1;1,220661521E0
1,128298741E2;-3,900374472E-1;-8,949175477E-2;-4,870123267E-1
1,129298741E2;-8,524624705E-1;1,098030329E0;-1,831221342E0
1,130298741E2;-1,097877502E0;-1,235474944E-1;-1,684155464E0
1,131298741E2;-1,761888027E0;-1,000902653E0;-1,098488450E0
1,132298741E2;-4,783074856E-1;1,925752759E-1;-6,995934248E-1
1,133298741E2;7,690793276E-1;6,559165716E-1;1,047633886E0
1,134298741E2;1,449430466E0;1,312138557E0;1,704161286E0
1,135298741E2;1,236238599E0;6,120869517E-1;2,145205975E0
1,136298741E2;7,148650289E-1;4,529565871E-1;2,419026345E-1
1,137298741E2;-4,138612151E-1;-1,634064503E-2;-5,732970238E-1
1,138298741E2;-7,279986739E-1;-5,955935922E-3;-1,390482068E0
1,139298741E2;-1,187063932E0;-7,463245988E-1;-1,454775572E0
1,140298741E2;-1,602146864E0;-9,540187716E-1;-1,081384182E0
1,141298741E2;-6,899722815E-1;-4,677700698E-1;-9,022479653E-1
1,142298741E2;8,689557910E-1;7,990117669E-1;7,006624341E-1
1,143298741E2;1,604895711E0;8,173376918E-1;1,924530983E0
1,144298741E2;1,295492411E0;2,991712391E-1;2,226145744E0
1,145298741E2;6,722571850E-1;-6,475171447E-1;9,874636531E-1
1,146298741E2;-1,449277848E-1;-3,877467215E-1;-8,292495608E-1
1,147298741E2;-5,146539807E-1;-2,086104751E-1;-1,565342188E0
1,148298741E2;-1,272737741E0;-8,510879874E-1;-1,859168410E0
1,149298741E2;-1,913229942E0;-7,446447611E-1;-1,289842010E0
1,150298741E2;-3,882048726E-1;1,191187184E-2;-5,564982295E-1
1,151298741E2;1,010982037E0;9,492846131E-1;1,175304770E0
1,152298741E2;1,356426239E0;6,565274000E-1;2,247984171E0
1,153298741E2;1,021977544E0;-1,459967941E-1;2,077858210E0
1,154298741E2;1,759291887E-1;-3,900374472E-1;6,010913849E-1
1,155298741E2;-5,623014569E-1;-6,409503818E-1;-7,849618196E-1
1,156298741E2;-7,464773059E-1;-2,211332172E-1;-1,283275127E0
1,157298741E2;-1,768302202E0;-1,632842779E0;-1,547779799E0
1,158298741E2;-1,510364294E0;-7,606799603E-1;-1,341612816E0
1,159298741E2;2,840523422E-2;3,329215646E-1;-1,970040351E-1
1,160298741E2;1,268614411E0;9,185886383E-1;1,589318633E0
1,161298741E2;1,431257248E0;5,016731024E-1;2,486374378E0
1,162298741E2;9,589056969E-1;5,268712714E-2;1,632231951E0
1,163298741E2;-6,261368841E-2;-6,398813725E-1;-6,918048859E-2
1,164298741E2;-4,528038502E-1;5,161811113E-1;-1,365131140E0
1,165298741E2;-6,583600044E-1;-2,191479057E-1;-1,915520668E0
1,166298741E2;-1,606728315E0;-6,533203721E-1;-1,338253021E0
1,167298741E2;-1,121395826E0;-6,441574097E-1;-1,114981771E0
1,168298741E2;6,499606371E-1;9,240863919E-1;4,170682430E-1
1,169298741E2;1,476461291E0;9,161451459E-1;2,036472082E0
1,170298741E2;1,226464748E0;5,329799280E-2;2,428952932E0
1,171298741E2;9,298896194E-1;3,643811047E-1;3,304781020E-1
1,172298741E2;-2,029599845E-1;4,795292318E-1;-8,365799785E-1
1,173298741E2;-6,456845403E-1;-4,350887835E-1;-1,351233959E0
1,174298741E2;-1,175304770E0;-9,524916410E-1;-2,042733431E0
1,175298741E2;-1,651321530E0;-5,676465034E-1;-1,266018271E0
1,176298741E2;-1,905899495E-1;-5,803219974E-3;-5,140430927E-1
1,177298741E2;1,149037480E0;1,265712738E0;1,598939776E0
1,178298741E2;1,383304358E0;5,849034786E-1;2,596482754E0
1,179298741E2;1,014341712E0;-4,216497242E-1;1,827708840E0
1,180298741E2;6,597344577E-2;-3,849978149E-1;-1,235474944E-1
1,181298741E2;-5,925393105E-1;2,380847335E-1;-1,347263336E0
1,182298741E2;-8,127561808E-1;6,872233935E-3;-1,840995073E0
1,183298741E2;-1,732413888E0;-7,539604306E-1;-1,375363111E0
1,184298741E2;-7,565566301E-1;-2,857322097E-1;-9,819658995E-1
1,185298741E2;7,907650471E-1;6,948592067E-1;8,402451277E-1
1,186298741E2;1,616349459E0;1,023199320E0;2,189188242E0
1,187298741E2;5,682573915E-1;1,137736514E-1;2,544711828E0
1,188298741E2;1,765400618E-1;-3,338378668E-1;5,206099153E-1
1,189298741E2;-7,116580009E-2;3,365867436E-1;-9,961684942E-1
1,190298741E2;-4,702135324E-1;-1,449277848E-1;-1,665524125E0
1,191298741E2;-1,392925501E0;-8,097018600E-1;-1,782657504E0
1,192298741E2;-9,094256163E-1;-1,314734697E0;-1,686598897E0
1,193298741E2;3,778201640E-1;1,436755061E0;7,696902007E-2
1,194298741E2;1,187980175E0;3,286454976E-1;2,684294701E0
1,195298741E2;1,262658477E0;1,988366395E-1;2,394591808E0
1,196298741E2;4,894557893E-1;-4,437935948E-1;8,378016949E-1
1,197298741E2;-3,016147017E-1;1,206458826E-2;-7,192938328E-1
1,198298741E2;-7,396050692E-1;8,567385375E-2;-1,472032547E0
1,199298741E2;-1,667509437E0;-9,502009153E-1;-1,870927572E0
1,200298741E2;-1,468367338E0;-1,125519156E0;-1,638493299E0
1,201298741E2;3,869831264E-1;8,020660877E-1;4,396702647E-1
1,202298741E2;1,608408213E0;9,178250432E-1;2,087937355E0
1,203298741E2;1,631773829E0;7,635815418E-4;2,535701513E0
1,204298741E2;8,929322958E-1;-9,498954564E-2;1,065654397E0
1,205298741E2;-2,782491148E-1;-6,812674403E-1;-4,054618180E-1
1,206298741E2;-8,463537693E-1;4,295909703E-1;-1,202641010E0
1,207298741E2;-9,506590366E-1;-5,787948370E-1;-2,113593817E0
1,208298741E2;-1,863139033E0;1,311833113E-1;-1,513724089E0
1,209298741E2;-3,168863356E-1;-3,422372639E-1;-1,487456858E-1
1,210298741E2;1,466382027E0;1,597565293E0;2,050521851E0
1,211298741E2;1,167058110E0;-2,565633953E-1;2,433992624E0
1,212298741E2;9,074403048E-1;-1,922698319E-1;1,565342188E0
1,213298741E2;2,263255715E-1;-7,131851465E-2;-1,415680200E-1
1,214298741E2;-5,966626406E-1;2,635883391E-1;-1,400866747E0
1,215298741E2;-1,462564111E0;-8,093964458E-1;-2,329534531E0
1,216298741E2;-1,402393937E0;-6,256787181E-1;-1,214247346E0
1,217298741E2;-3,344487250E-1;-2,105957866E-1;-5,618433356E-1
1,218298741E2;7,530441284E-1;1,035416603E0;1,224937558E0
1,219298741E2;9,618073106E-1;7,356344461E-1;1,773036361E0
1,220298741E2;1,205847979E0;5,314527750E-1;2,313652039E0
1,221298741E2;4,740314186E-1;-2,240348309E-1;5,795583725E-1
1,222298741E2;-1,869247705E-1;-4,705189466E-1;-3,985895813E-1
1,223298741E2;-5,199990273E-1;-2,301434875E-1;-1,123839378E0
1,224298741E2;-9,906707406E-1;-6,038402915E-1;-1,385442376E0
1,225298741E2;-1,389871120E0;-7,296785116E-1;-1,361924052E0
1,226298741E2;-9,685268402E-1;-5,937610269E-1;-1,198975801E0
1,227298741E2;4,251621962E-1;1,180497110E-1;2,486221492E-1
1,228298741E2;1,307557106E0;1,142623425E0;1,606270194E0
1,229298741E2;1,336420417E0;7,286095023E-1;2,194533348E0
1,230298741E2;1,168432474E0;4,257730842E-1;9,763153791E-1
1,231298741E2;6,230825558E-2;-7,667886019E-1;-1,568396538E-1
1,232298741E2;-5,455026627E-1;6,702718735E-1;-1,202182770E0
1,233298741E2;-7,765624523E-1;-7,849618047E-2;-1,559691668E0
1,234298741E2;-1,338100314E0;-7,673994899E-1;-1,279457211E0
1,235298741E2;-1,439503908E0;-7,506006956E-1;-1,318858027E0
1,236298741E2;5,345070735E-2;6,276640296E-2;-1,267545372E-1
1,237298741E2;1,200502872E0;9,596692920E-1;1,270294309E0
1,238298741E2;1,290910959E0;1,660026312E-1;2,418720961E0
1,239298741E2;7,199047208E-1;-6,757696867E-1;1,856419444E0
1,240298741E2;2,626720667E-1;-5,172501206E-1;4,503603876E-1
1,241298741E2;-1,175915636E-2;2,510656118E-1;-1,055269718E0
1,242298741E2;-2,835941911E-1;1,069014147E-2;-1,949729204E0
1,243298741E2;-1,103222609E0;-1,177137375E0;-1,693623900E0
1,244298741E2;-1,757306576E0;-9,155342579E-1;-1,293507099E0
1,245298741E2;-2,504547536E-1;-1,930334121E-1;-4,051563740E-1
1,246298741E2;8,717046976E-1;1,203404546E0;1,316872716E0
1,247298741E2;1,224937558E0;8,028296232E-1;2,121076822E0
1,248298741E2;6,939429045E-1;-3,597996235E-1;2,192242622E0
1,249298741E2;5,067127347E-1;-3,620903790E-1;6,986771226E-1
1,250298741E2;-1,942551434E-1;1,441642046E-1;-1,017396092E0
1,251298741E2;-4,159992337E-1;2,235766798E-1;-1,538769603E0
1,252298741E2;-1,051299095E0;-4,219551682E-1;-1,674992561E0
1,253298741E2;-1,540143967E0;-5,442809463E-1;-1,393536329E0
1,254298741E2;-4,607451260E-1;-6,307183951E-2;-6,608034968E-1
1,255298741E2;7,547240257E-1;1,016479731E0;7,809911966E-1
1,256298741E2;1,262963891E0;9,054549932E-1;1,814880610E0
1,257298741E2;1,050077319E0;6,475171447E-2;2,299754858E0
1,258298741E2;8,216137290E-1;-8,155050874E-2;1,145372391E0
1,259298741E2;1,154535338E-1;3,924809098E-1;-7,889324427E-1
1,260298741E2;-3,784310222E-1;1,211040318E-1;-1,396590710E0
1,261298741E2;-7,896960378E-1;-2,646573782E-1;-1,709659100E0
1,262298741E2;-1,469894528E0;-3,478877544E-1;-1,075733662E0
1,263298741E2;-1,028391600E0;-4,309654236E-1;-1,029002547E0
1,264298741E2;3,824016452E-1;8,976664543E-1;4,775438905E-1
1,265298741E2;1,182482362E0;1,125366449E0;1,827861547E0
1,266298741E2;1,131322384E0;7,993171811E-1;2,493704557E0
1,267298741E2;7,302893996E-1;-2,625193298E-1;1,481195450E0
1,268298741E2;-1,256855279E-1;-4,236350358E-1;-1,710422635E-1
1,269298741E2;-4,993823469E-1;1,404531956E0;-1,145830512E0
1,270298741E2;-7,677049041E-1;-9,162978269E-3;-2,015702486E0
1,271298741E2;-1,636049867E0;-6,580545902E-1;-1,190576315E0
1,272298741E2;-1,437518597E0;-5,045747161E-1;-1,165072680E0
1,273298741E2;9,926560521E-2;3,260493279E-1;1,695151068E-2
1,274298741E2;1,096045017E0;1,016021609E0;1,664913177E0
1,275298741E2;1,088561893E0;4,859432876E-1;2,437657833E0
1,276298741E2;6,876815557E-1;-1,301143020E-1;1,843744040E0
1,277298741E2;-2,360994220E-1;-9,190467596E-1;1,817324162E-1
1,278298741E2;-6,261368990E-1;4,746423066E-1;-9,054549932E-1
1,279298741E2;-7,142542005E-1;-4,844161272E-1;-1,565342188E0
1,280298741E2;-1,357648015E0;-1,198364854E0;-1,489289522E0
1,281298741E2;-1,544878244E0;-8,744536042E-1;-1,232878804E0
1,282298741E2;-5,757404864E-2;-2,489275858E-2;-4,929682612E-1
1,283298741E2;1,121854067E0;1,056949615E0;9,978483915E-1
1,284298741E2;1,267239928E0;4,615086913E-1;2,035097599E0
1,285298741E2;8,759807348E-1;-3,756821156E-2;2,115579128E0
1,286298741E2;4,309654236E-1;-6,243042946E-1;4,783074856E-1
1,287298741E2;-2,568688393E-1;-1,863138936E-2;-9,427177906E-1
1,288298741E2;-1,916589737E-1;-1,660026312E-1;-1,555415630E0
1,289298741E2;-8,458956480E-1;-8,020660877E-1;-1,780519485E0
1,290298741E2;-1,486387849E0;-4,483750761E-1;-1,182940602E0
1,291298741E2;-2,959642112E-1;-5,345070735E-3;-9,546296597E-1
1,292298741E2;7,968736887E-1;9,007207751E-1;1,043968678E0
1,293298741E2;1,220355988E0;7,170031071E-1;1,973552942E0
1,294298741E2;1,291827321E0;6,185010672E-1;2,252107382E0
1,295298741E2;7,509061098E-1;-3,695734739E-1;9,456194043E-1
1,296298741E2;-2,461786866E-1;-2,263255715E-1;-6,455318332E-1
1,297298741E2;-3,484986126E-1;2,244929783E-2;-1,131016970E0
1,298298741E2;-6,327036619E-1;-1,858557463E-1;-1,732719302E0
1,299298741E2;-1,264796495E0;-4,540255964E-1;-1,383304358E0
1,300298741E2;-9,674578309E-1;-5,864306092E-1;-1,217301726E0
1,301298741E2;2,295326144E-1;4,050036669E-1;1,747074574E-1
1,302298741E2;1,081384182E0;8,190175891E-1;1,624596119E0
1,303298741E2;1,133765936E0;4,138612151E-1;2,434756041E0
1,304298741E2;8,568912148E-1;-2,755002379E-1;1,644907355E0
1,305298741E2;2,185370475E-1;-1,282358885E0;1,721112877E-1
1,306298741E2;-3,104722500E-1;2,232712507E-1;-1,077413559E0
1,307298741E2;-4,723515511E-1;-1,571450830E-1;-1,622916222E0
1,308298741E2;-1,359327912E0;-6,308710575E-1;-1,665676832E0
1,309298741E2;-1,292438149E0;-7,757988572E-1;-1,180955291E0
1,310298741E2;-1,427897513E-1;5,305364728E-1;-2,504547536E-1
1,311298741E2;9,117164016E-1;1,155757070E0;1,283580542E0
1,312298741E2;1,092990637E0;6,411030889E-1;2,220647812E0
1,313298741E2;8,608618379E-1;1,324050426E-1;2,067015171E0
1,314298741E2;4,920519590E-1;-1,368338168E-1;7,221954465E-1
1,315298741E2;-1,965458989E-1;1,443169117E-1;-8,319984674E-1
1,316298741E2;-5,600107312E-1;-2,840523422E-1;-1,101695418E0
1,317298741E2;-1,115898132E0;-3,610213697E-1;-1,680642962E0
1,318298741E2;-1,343750834E0;-6,452264190E-1;-1,357342601E0
1,319298741E2;-5,881105065E-1;-1,701259762E-1;-9,257662892E-1
1,320298741E2;4,795292318E-1;7,866417170E-1;6,023131609E-1
1,321298741E2;1,731497526E0;1,173472166E0;2,794403076E0
1,322298741E2;1,029155254E0;-1,751656085E-1;2,231338024E0
1,323298741E2;1,708895564E-1;-5,051855445E-1;4,108068645E-1
1,324298741E2;-3,555235863E-1;5,039638281E-2;-1,274875760E0
1,325298741E2;-7,458664775E-1;-2,499966025E-1;-2,906191349E0
1,326298741E2;-1,756543040E0;-9,572258592E-1;-1,380097270E0
1,327298741E2;-6,114761233E-1;3,665191587E-3;-7,657195926E-1
1,328298741E2;5,826127529E-1;7,261660695E-1;8,662069440E-1
1,329298741E2;1,393230915E0;8,426886201E-1;2,307696104E0
1,330298741E2;1,095739484E0;3,817907767E-3;2,357939959E0
1,331298741E2;4,517348409E-1;-3,330742717E-1;5,137376785E-1
1,332298741E2;-1,996002197E-1;9,376781583E-1;-1,516625643E0
1,333298741E2;-3,101668358E-1;-6,496551633E-1;-1,642769337E0
1,334298741E2;-1,558775425E0;-1,097877502E0;-1,848783612E0
1,335298741E2;-1,330922604E0;-9,167560339E-1;-1,311222196E0
1,336298741E2;2,753475010E-1;7,356344461E-1;3,233004212E-1
1,337298741E2;1,293201685E0;1,351539373E0;2,347860575E0
1,338298741E2;9,459248185E-1;-1,481348183E-2;2,543031931E0
1,339298741E2;7,476990819E-1;-9,269879758E-2;1,202030063E0
1,340298741E2;-2,722931802E-1;3,688098788E-1;-1,191034555E0
1,341298741E2;-4,382958114E-1;-8,480336666E-1;-1,359175205E0
1,342298741E2;-1,081995010E0;-1,066570759E0;-1,441183805E0
1,343298741E2;-1,569465518E0;-1,277319193E0;-1,479362965E0
1,344298741E2;1,527163107E-2;2,932153270E-2;-3,484986126E-1
1,345298741E2;1,236238599E0;1,237002134E0;1,864055276E0
1,346298741E2;1,135293007E0;5,818491578E-1;2,670244694E0
1,347298741E2;8,616254330E-1;-1,334740520E-1;1,625359654E0
1,348298741E2;-4,123340547E-2;-3,726277873E-2;-5,968153477E-1
1,349298741E2;-6,603453159E-1;6,780604273E-2;-1,304350019E0
1,350298741E2;-9,973902106E-1;-4,918992519E-1;-1,997376680E0
1,351298741E2;-1,868484020E0;-7,644978762E-1;-1,675450683E0
1,352298741E2;-2,887865305E-1;-2,018909603E-1;-6,403394938E-1
1,353298741E2;8,782715201E-1;9,894489646E-1;1,348332286E0
1,354298741E2;1,070541382E0;7,625125647E-1;2,489123106E0
1,355298741E2;8,144360781E-1;3,892738819E-1;2,073734760E0
1,356298741E2;5,039638374E-3;-7,556403279E-1;1,826487035E-1
1,357298741E2;-2,967278063E-1;4,667010605E-1;-1,176068306E0
1,358298741E2;-6,522513628E-1;-1,970040426E-2;-1,881159544E0
1,359298741E2;-1,583209991E0;-7,573201656E-1;-1,483639002E0
1,360298741E2;-1,023810148E0;-5,633704662E-1;-1,248608589E0
1,361298741E2;4,352414906E-1;5,943718553E-1;5,085453391E-1
1,362298741E2;1,227380991E0;1,100168347E0;2,137112141E0
1,363298741E2;8,915578127E-1;2,090686262E-1;2,636341572E0
1,364298741E2;5,732970238E-1;-1,852448881E-1;9,958630800E-1
1,365298741E2;-2,539672256E-1;2,396118939E-1;-8,425359130E-1
1,366298741E2;-5,323690772E-1;-1,485929638E-1;-1,496925235E0
1,367298741E2;-1,251357436E0;-8,929322958E-1;-2,103209019E0
1,368298741E2;-1,346957922E0;-5,548183322E-1;-1,459662557E0
1,369298741E2;-1,982257664E-1;1,420261711E-2;-2,188424766E-1
1,370298741E2;1,098183036E0;1,350164890E0;1,656666517E0
1,371298741E2;1,092532516E0;5,351179838E-1;2,652224064E0
1,372298741E2;7,927503586E-1;-3,022255898E-1;1,874592662E0
1,373298741E2;-8,139779419E-2;-4,236350358E-1;-2,871066630E-1
1,374298741E2;-2,414444834E-1;5,242751241E-1;-1,291063666E0
1,375298741E2;-6,858489513E-1;-1,864666194E-1;-2,174985647E0
1,376298741E2;-1,499979615E0;-8,097018600E-1;-1,433089852E0
1,377298741E2;-6,360634565E-1;-2,205223590E-1;-1,001208186E0
1,378298741E2;6,403394938E-1;9,980010986E-1;9,524916410E-1
1,379298741E2;1,200655699E0;6,354525685E-1;2,279596329E0
1,380298741E2;9,647089243E-1;1,479821056E-1;2,464993954E0
1,381298741E2;4,618141353E-1;-7,696902007E-2;7,504479289E-1
1,382298741E2;-2,845104933E-1;2,968805134E-1;-1,030071497E0
1,383298741E2;-7,394523621E-1;-2,287690341E-1;-1,492954612E0
1,384298741E2;-1,333976984E0;-8,755226135E-1;-1,733177423E0
1,385298741E2;-1,585195303E0;-6,470590234E-1;-1,397048831E0
1,386298741E2;-1,264491081E-1;2,397646159E-1;-5,100724846E-2
1,387298741E2;1,052826285E0;1,080926061E0;1,755626678E0
1,388298741E2;1,181413412E0;4,717406929E-1;2,644130230E0
1,389298741E2;8,755226135E-1;-3,107776940E-1;1,678810358E0
1,390298741E2;-1,453859210E-1;-2,258674204E-1;-5,303837657E-1
1,391298741E2;-2,785545588E-1;5,842925906E-1;-1,176221013E0
1,392298741E2;-8,596401215E-1;2,122756690E-1;-2,763096333E0
1,393298741E2;-1,651779652E0;-8,579602242E-1;-1,356120825E0
1,394298741E2;-5,025894046E-1;-6,352998316E-2;-8,859072924E-1
1,395298741E2;7,446447611E-1;8,633053303E-1;7,154759169E-1
1,396298741E2;1,379639149E0;7,825183868E-1;2,267837286E0
1,397298741E2;9,876163602E-1;1,098030284E-1;2,410321474E0
1,398298741E2;2,153300047E-1;-4,237877727E-1;1,007164121E0
1,399298741E2;-1,418734491E-1;2,643519342E-1;-8,429940343E-1
1,400298741E2;-4,563163519E-1;-1,791362315E-1;-1,582446456E0
1,401298741E2;-1,098641157E0;-7,428121567E-1;-1,685682654E0
1,402298741E2;-1,558622718E0;-9,250026941E-1;-1,466687441E0
1,403298741E2;-1,244637966E-1;2,367102802E-1;-4,468479156E-1
1,404298741E2;1,046870351E0;1,291063666E0;1,617112994E0
1,405298741E2;1,227380991E0;4,680754840E-1;2,583196402E0
1,406298741E2;7,338019013E-1;-3,061962128E-1;1,976454496E0
1,407298741E2;-1,426370293E-1;-6,281222105E-1;-1,963931769E-1
1,408298741E2;-2,614503205E-1;4,480696619E-1;-1,367574573E0
1,409298741E2;-4,656320214E-1;-5,833762884E-1;-1,910786510E0
1,410298741E2;-1,388191223E0;-7,690793276E-1;-1,471421719E0
1,411298741E2;-9,468411207E-1;-4,908302128E-1;-1,046412110E0
1,412298741E2;5,424483418E-1;5,002986193E-1;5,105306506E-1
1,413298741E2;1,180802464E0;8,466592431E-1;2,087631941E0
1,414298741E2;1,046412110E0;6,473644376E-1;2,527302265E0
1,415298741E2;3,582724631E-1;-5,319108963E-1;1,387580395E0
1,416298741E2;-1,988366395E-1;5,253441259E-2;-8,294022679E-1
1,417298741E2;-4,996877611E-1;3,619376570E-2;-1,506393671E0
1,418298741E2;-9,106473923E-1;-9,114109278E-1;-1,990809798E0
1,419298741E2;-1,620320082E0;-8,869763613E-1;-1,233184218E0
1,420298741E2;-2,825251818E-1;-6,627888232E-2;-6,107125282E-1
1,421298741E2;9,706648588E-1;1,136362076E0;1,335809588E0
1,422298741E2;1,285871387E0;7,334964275E-1;2,448806047E0
1,423298741E2;8,034405112E-1;-9,056077152E-2;2,032196045E0
1,424298741E2;6,154467165E-2;-6,818783283E-1;4,166100919E-1
1,425298741E2;-2,489275932E-1;5,656611919E-1;-1,302975535E0
1,426298741E2;-3,869831264E-1;-4,019493461E-1;-1,792889476E0
1,427298741E2;-1,192561626E0;-1,074512005E0;-1,577864885E0
1,428298741E2;-1,549154282E0;-9,772316813E-1;-1,167974353E0
1,429298741E2;1,417207420E-1;3,700316250E-1;-1,343903504E-2
1,430298741E2;1,130100727E0;1,727221489E0;1,901012659E0
1,431298741E2;9,381362796E-1;7,315111160E-2;2,472782612E0
1,432298741E2;6,667594314E-1;-4,103487432E-1;1,959808469E0
1,433298741E2;-5,955936015E-2;7,147123665E-2;-6,047565937E-1
1,434298741E2;-4,612032473E-1;1,711949855E-1;-1,217607141E0
1,435298741E2;-8,996517658E-1;-3,987422884E-1;-1,931861281E0
1,436298741E2;-1,590387702E0;-3,304781020E-1;-1,419498086E0
1,437298741E2;-6,250678897E-1;-2,622139156E-1;-1,013120055E0
1,438298741E2;7,938193679E-1;8,255843520E-1;7,759515643E-1
1,439298741E2;1,264491081E0;9,178250432E-1;2,041969776E0
1,440298741E2;1,033736706E0;2,277000248E-1;2,572200775E0
1,441298741E2;3,972151279E-1;-1,579086632E-1;9,060658813E-1
1,442298741E2;-2,962696366E-2;1,472185254E-1;-8,306240439E-1
1,443298741E2;-3,484986126E-1;-1,676825136E-1;-1,510058880E0
1,444298741E2;-9,697485566E-1;-5,090034604E-1;-1,880243182E0
1,445298741E2;-1,642311215E0;-7,341073155E-1;-1,215927243E0
1,446298741E2;-2,945897579E-1;-3,191770986E-2;-5,946773291E-1
1,447298741E2;9,395107627E-1;1,171792269E0;1,410487890E0
1,448298741E2;1,013120055E0;5,761986375E-1;2,456747293E0
1,449298741E2;5,694791079E-1;7,284568250E-2;2,212095737E0
1,450298741E2;-2,015855350E-2;-8,304712772E-1;2,281581759E-1
1,451298741E2;-1,921171248E-1;2,637410760E-1;-1,218217969E0
1,452298741E2;-4,326453209E-1;-5,708535910E-1;-1,735468149E0
1,453298741E2;-1,261436701E0;-1,170112371E0;-1,493412852E0
1,454298741E2;-1,377806544E0;-8,324565887E-1;-1,204473495E0
1,455298741E2;1,542434692E-1;3,785837293E-1;-1,317941695E-1
1,456298741E2;1,038165450E0;1,233642340E0;1,770745635E0
1,457298741E2;1,075428247E0;6,278167367E-1;2,478280306E0
1,458298741E2;5,629123449E-1;-3,692680299E-1;1,754557729E0
1,459298741E2;-2,631302178E-1;-9,208793640E-1;-2,043344229E-1
1,460298741E2;-3,759875596E-1;1,823432744E-1;-1,224326611E0
1,461298741E2;-4,324925840E-1;-4,792237878E-1;-1,868178606E0
1,462298741E2;-1,454164743E0;-7,510588169E-1;-1,481806397E0
1,463298741E2;-7,936666608E-1;-5,123631954E-1;-1,085354805E0
1,464298741E2;4,271475375E-1;9,266825914E-1;2,690861523E-1
1,465298741E2;1,032514930E0;1,003957033E0;1,980272412E0
1,466298741E2;9,990701079E-1;3,610213697E-1;2,676200628E0
1,467298741E2;4,954117239E-1;-3,944662213E-1;1,330617189E0
1,468298741E2;-2,596177394E-3;-1,768454909E-1;-6,627888083E-1
1,469298741E2;-2,571742535E-1;1,350012124E-1;-1,314123869E0
1,470298741E2;-6,855435371E-1;-4,667010605E-1;-1,998140216E0
1,471298741E2;-1,448819637E0;-2,944370508E-1;-1,377806544E0
1,472298741E2;-6,020076871E-1;1,313360315E-2;-9,825767279E-1
1,473298741E2;4,998404980E-1;1,184467673E0;7,443392873E-1
1,474298741E2;1,071152210E0;6,751587987E-1;2,234544992E0
1,475298741E2;8,391761184E-1;4,230241850E-2;2,602744102E0
1,476298741E2;2,506074607E-1;1,832595794E-3;8,694139719E-1
1,477298741E2;-1,576032341E-1;9,544769675E-2;-8,443684578E-1
1,478298741E2;-4,986187518E-1;-1,435533315E-1;-1,376126647E0
1,479298741E2;-1,299768567E0;-1,318705320E0;-1,930945039E0
1,480298741E2;-1,751045227E0;-5,555819273E-1;-1,067487001E0
1,481298741E2;-1,099557430E-1;3,382666409E-1;-4,651738703E-1
1,482298741E2;1,004109740E0;1,241736293E0;1,430799127E0
1,483298741E2;1,168585181E0;6,207917929E-1;2,569146395E0
1,484298741E2;6,637051105E-1;-2,768746614E-1;2,045329571E0
1,485298741E2;1,123992056E-1;-8,753699064E-1;1,977676302E-1
1,486298741E2;-2,028072625E-1;1,098030284E-1;-1,031751394E0
1,487298741E2;-4,940372705E-1;-5,439754725E-1;-1,620320082E0
1,488298741E2;-1,200502872E0;-1,024726391E0;-1,821752906E0
1,489298741E2;-1,371239781E0;-6,380487680E-1;-1,295797944E0
1,490298741E2;1,802052557E-2;2,655736506E-1;-1,102611795E-1
1,491298741E2;9,338602424E-1;1,400866747E0;1,681406617E0
1,492298741E2;9,262244105E-1;3,214678466E-1;2,534021854E0
1,493298741E2;5,868887901E-1;-6,821837425E-1;2,002721786E0
1,494298741E2;-1,857030392E-1;-9,830349088E-1;-1,146899462E-1
1,495298741E2;-8,475755155E-2;3,362813294E-1;-1,190881848E0
1,496298741E2;-3,425426781E-1;-4,056145251E-1;-1,894445896E0
1,497298741E2;-1,276861072E0;-6,881396770E-1;-1,562287807E0
1,498298741E2;-1,066876173E0;-8,130616546E-1;-1,161560297E0
1,499298741E2;2,539672256E-1;6,484334469E-1;2,078468949E-1
1,500298741E2;9,981538057E-1;1,129795313E0;1,952630758E0
1,501298741E2;1,025184631E0;6,290385127E-1;2,612823486E0
1,502298741E2;6,824892163E-1;-3,804163337E-1;1,420719862E0
1,503298741E2;-2,017382532E-1;-5,233588219E-1;-4,250094891E-1
1,504298741E2;-1,531744599E-1;5,707008839E-1;-1,379181027E0
1,505298741E2;-5,708535910E-1;-1,531744599E-1;-2,109623194E0
1,506298741E2;-1,544420004E0;-3,327688277E-1;-1,463785887E0
1,507298741E2;-7,605272532E-1;-3,813326359E-1;-1,056185961E0
1,508298741E2;4,421137273E-1;9,443976879E-1;6,664539576E-1
1,509298741E2;1,150106549E0;1,066723466E0;2,070985794E0
1,510298741E2;8,713992834E-1;3,553708494E-1;2,384512424E0
1,511298741E2;2,935207486E-1;-8,552113175E-2;1,409266114E0
1,512298741E2;-5,062545538E-1;-2,921462953E-1;-7,348709106E-1
1,513298741E2;-2,251038402E-1;8,979719132E-2;-1,251052022E0
1,514298741E2;-7,470881939E-1;-4,607451260E-1;-2,075720072E0
1,515298741E2;-1,558164477E0;-4,954117239E-1;-1,360244155E0
1,516298741E2;-4,193589985E-1;-1,745547503E-1;-8,559749126E-1
1,517298741E2;8,121453524E-1;1,234558702E0;9,896016717E-1
1,518298741E2;1,132696867E0;1,001971722E0;2,175901890E0
1,519298741E2;8,061894178E-1;2,426662147E-1;2,455525637E0
1,520298741E2;2,845104933E-1;-3,711006343E-1;9,786061049E-1
1,521298741E2;9,315694869E-2;3,164281845E-1;-8,568912148E-1
1,522298741E2;-4,784601927E-1;-1,925752759E-1;-1,442100167E0
1,523298741E2;-1,079093456E0;-3,501785100E-1;-1,817171335E0
1,524298741E2;-1,559080839E0;-1,102306366E0;-1,364367485E0
1,525298741E2;-3,663664162E-1;-9,330966324E-2;-5,734497309E-1
1,526298741E2;7,535023093E-1;1,116203547E0;1,302975535E0
1,527298741E2;8,425359130E-1;7,718282342E-1;2,648100853E0
1,528298741E2;8,891143799E-1;2,147191316E-1;2,289981127E0
1,529298741E2;1,487456858E-1;-1,122006774E0;3,141374588E-1
1,530298741E2;-3,967569768E-1;3,283400834E-1;-1,045037746E0
1,531298741E2;-3,347541690E-1;-2,825251818E-1;-1,467909217E0
1,532298741E2;-1,172250390E0;-5,080871582E-1;-1,737606168E0
1,533298741E2;-1,317483664E0;-5,250386596E-1;-1,257313371E0
1,534298741E2;-1,478293836E-1;-1,692096740E-1;-1,876883507E-1
1,535298741E2;9,949467778E-1;1,106429696E0;1,673159957E0
1,536298741E2;1,057865858E0;3,422372639E-1;2,032959461E0
1,537298741E2;8,817839622E-1;-4,670064747E-1;2,037082911E0
1,538298741E2;2,444988191E-1;-5,723807216E-1;3,029891551E-1
1,539298741E2;-1,850921661E-1;4,415028691E-1;-1,085507512E0
1,540298741E2;-2,664899528E-1;-3,254384696E-1;-1,646434546E0
1,541298741E2;-1,188743711E0;-5,487096906E-1;-2,002110958E0
1,542298741E2;-1,467603803E0;-1,375973970E-1;-1,264491081E0
1,543298741E2;3,210096955E-1;8,686503768E-1;-1,108720452E-1
1,544298741E2;1,248455882E0;1,460120678E0;2,236072302E0
1,545298741E2;1,089020014E0;6,455318332E-1;2,854726076E0
1,546298741E2;3,501785100E-1;-6,540839672E-1;1,446987033E0
1,547298741E2;-4,283692539E-1;-2,148718536E-1;-9,294314981E-1
1,548298741E2;-2,681698501E-1;1,931861341E-1;-1,811826348E0
1,549298741E2;-1,455691934E0;-7,678576112E-1;-2,392911911E0
1,550298741E2;-1,170723200E0;-1,182635069E0;-1,078635335E0
1,551298741E2;4,027129114E-1;5,745187402E-1;3,833179474E-1
1,552298741E2;1,305419087E0;1,093296051E0;2,329229116E0
1,553298741E2;1,162018418E0;1,253800988E-1;2,611143589E0
1,554298741E2;5,061018467E-1;-4,159992337E-1;5,986479521E-1
1,555298741E2;-1,253800988E-1;4,228714705E-1;-1,409113407E0
1,556298741E2;-2,907718420E-1;-3,527746797E-1;-1,970651269E0
1,557298741E2;-1,711033583E0;-1,420109034E0;-1,871080279E0
1,558298741E2;-7,997753024E-1;-5,526803136E-1;-1,098946571E0
1,559298741E2;5,933028460E-1;9,944885969E-1;1,202793717E0
1,560298741E2;1,147052169E0;7,336491346E-1;2,794708490E0
1,561298741E2;7,089090943E-1;-6,102544069E-1;2,382069111E0
1,562298741E2;-1,160643995E-2;-7,741189599E-1;5,467243865E-2
1,563298741E2;-2,747366428E-1;2,336559631E-2;-1,553430319E0
1,564298741E2;-7,603744864E-1;-5,430592299E-1;-2,408794403E0
1,565298741E2;-1,802816033E0;-8,863654733E-1;-1,361465931E0
1,566298741E2;-4,619668424E-1;1,038470957E-2;-6,498079300E-1
1,567298741E2;1,227380991E0;1,384526134E0;1,497230768E0
1,568298741E2;1,180191636E0;5,088507533E-1;2,979495287E0
1,569298741E2;6,919575930E-1;-5,178610086E-1;1,893376827E0
1,570298741E2;-7,941247895E-3;-3,927863538E-1;-2,412917763E-1
1,571298741E2;-5,302310586E-1;3,810271919E-1;-1,650099754E0
1,572298741E2;-1,050688267E0;-6,052147150E-1;-2,465299368E0
1,573298741E2;-1,496008992E0;-6,029239893E-1;-1,539075017E0
1,574298741E2;1,235474944E-1;7,269296050E-2;-1,895209402E-1
1,575298741E2;1,264338374E0;1,430646420E0;2,071291447E0
1,576298741E2;8,486445546E-1;4,271475375E-1;2,958725929E0
1,577298741E2;5,740606189E-1;-2,901609838E-1;1,260367751E0
1,578298741E2;-2,058615834E-1;6,710354686E-1;-1,398576021E0
1,579298741E2;-3,746131063E-1;-7,869471312E-1;-1,652237773E0
1,580298741E2;-1,434158921E0;-1,036791086E0;-2,300671339E0
1,581298741E2;-1,193172574E0;-8,403978348E-1;-1,289078355E0
1,582298741E2;3,367394805E-1;3,860668242E-1;5,213735104E-1
1,583298741E2;1,221730471E0;1,138652802E0;2,549446106E0
1,584298741E2;7,849618196E-1;-9,101892263E-2;2,682003975E0
1,585298741E2;3,877467215E-1;-5,302310586E-1;3,982841372E-1
1,586298741E2;-4,825835302E-2;5,210680366E-1;-1,357189894E0
1,587298741E2;-4,659374654E-1;-3,277291954E-1;-2,112066507E0
1,588298741E2;-1,585806131E0;-9,926560521E-1;-1,875203609E0
1,589298741E2;-6,097962260E-1;-1,165225431E-1;-1,067028880E0
1,590298741E2;7,203628421E-1;9,030115604E-1;1,059087634E0
1,591298741E2;1,375363111E0;9,741773605E-1;2,727360487E0
1,592298741E2;6,475171447E-1;-4,413501546E-2;2,205070734E0
1,593298741E2;4,230241850E-2;-7,189884186E-1;-5,421429127E-2
1,594298741E2;-4,382958114E-1;8,796459436E-2;-1,435075164E0
1,595298741E2;-8,781188130E-1;-1,015563458E-1;-2,296547890E0
1,596298741E2;-1,655139327E0;-1,207833290E0;-1,531133771E0
1,597298741E2;-2,263255715E-1;2,855795063E-2;-4,051563740E-1
1,598298741E2;1,174388409E0;8,405506015E-1;2,023949385E0
1,599298741E2;9,277516007E-1;7,345654815E-2;2,724917173E0
1,600298741E2;6,771441102E-1;-2,512183189E-1;1,885130167E0
1,601298741E2;1,314887404E-1;4,943426847E-1;-5,768095255E-1
1,602298741E2;-6,351471543E-1;-7,192938030E-2;-1,546099901E0
1,603298741E2;-1,211498499E0;-1,119563222E0;-2,535243511E0
1,604298741E2;-1,607797384E0;-9,297369123E-1;-1,359327912E0
1,605298741E2;3,260493279E-1;4,407392740E-1;2,167044431E-1
1,606298741E2;1,328021049E0;1,330769897E0;2,279290915E0
1,607298741E2;7,058547735E-1;-1,227839142E-1;2,854420662E0
1,608298741E2;1,921171248E-1;-4,213443100E-1;9,984592199E-1
1,609298741E2;-3,069597855E-2;5,225952268E-1;-1,106124282E0
1,610298741E2;-2,802344263E-1;3,527746722E-2;-1,825265408E0
1,611298741E2;-1,642769337E0;-1,342834473E0;-1,862986326E0
1,612298741E2;-9,940304756E-1;-9,544769675E-2;-9,520334601E-1
1,613298741E2;6,351471543E-1;3,152064681E-1;8,507825732E-1
1,614298741E2;1,214094639E0;7,791585922E-1;2,819753885E0
1,615298741E2;6,827946305E-1;-3,326161206E-1;2,326480389E0
1,616298741E2;3,802636266E-2;-7,263187766E-1;1,527163107E-2
1,617298741E2;-1,398881376E-1;5,523748994E-1;-1,563662291E0
1,618298741E2;-6,959282160E-1;-5,316054821E-1;-2,254398108E0
1,619298741E2;-1,761429906E0;-1,148273945E0;-1,554652095E0
1,620298741E2;-3,094032407E-1;-7,498370856E-2;-7,973318696E-1
1,621298741E2;1,247539520E0;1,240361929E0;1,567785621E0
1,622298741E2;1,175915599E0;5,870414972E-1;2,895501375E0
1,623298741E2;7,600690722E-1;-3,182607889E-1;1,901623487E0
1,624298741E2;2,215913683E-1;-2,576324046E-1;-3,257438838E-1
1,625298741E2;-6,168211699E-1;2,412917763E-1;-1,683697343E0
1,626298741E2;-1,527926683E0;-3,457497358E-1;-2,214081049E0
1,627298741E2;-1,442710996E0;-5,694791079E-1;-1,221119642E0
1,628298741E2;-8,048149943E-2;7,669413090E-1;-2,105957866E-1
1,629298741E2;1,330769897E0;1,585042596E0;2,163684607E0
1,630298741E2;9,779952765E-1;4,175263941E-1;2,806620359E0
1,631298741E2;5,905539989E-1;-2,777909636E-1;1,363909364E0
1,632298741E2;4,673119262E-2;1,046106741E-1;-8,984300494E-1
1,633298741E2;-4,243986309E-1;-6,291911751E-2;-1,712102532E0
1,634298741E2;-1,590845823E0;-8,142833710E-1;-2,042122602E0
1,635298741E2;-1,213636518E0;-5,919284225E-1;-1,217912555E0
1,636298741E2;3,798054755E-1;5,658139586E-1;2,638937831E-1
1,637298741E2;1,272126913E0;1,346652389E0;2,468659163E0
1,638298741E2;7,470881939E-1;-2,218967974E-1;2,828458786E0
1,639298741E2;2,194533348E-1;-6,371324658E-1;5,407684445E-1
1,640298741E2;-8,689557761E-2;1,087187409E0;-1,597718000E0
1,641298741E2;-8,819366693E-1;-2,814561725E-1;-2,345569849E0
1,642298741E2;-1,537700534E0;-1,049771905E0;-1,607339144E0
1,643298741E2;-5,094616413E-1;-6,963863969E-2;-9,934195876E-1
1,644298741E2;7,310529947E-1;1,277319193E0;1,066723466E0
1,645298741E2;1,060156584E0;4,615086913E-1;2,537839651E0
1,646298741E2;7,418958545E-1;-2,014328092E-1;2,440711975E0
1,647298741E2;-3,909537569E-2;-1,401477575E0;4,262312353E-1
1,648298741E2;-4,888449013E-1;9,621127695E-2;-1,509142637E0
1,649298741E2;-1,019992232E0;-1,353524685E0;-2,164906502E0
1,650298741E2;-1,590845823E0;-7,961101532E-1;-1,171486855E0
1,651298741E2;-4,787656367E-1;-1,016327024E0;-7,249443531E-1
1,652298741E2;1,325272202E0;2,046704054E0;1,438587666E0
1,653298741E2;8,013024926E-1;-5,360342264E-1;2,885116577E0
1,654298741E2;8,355109096E-1;-4,463897645E-1;2,039984465E0
1,655298741E2;-1,252273750E-2;-6,155994534E-1;-3,840815127E-1
1,656298741E2;-3,784310222E-1;2,910772860E-1;-1,562135100E0
1,657298741E2;-1,011440158E0;-3,321579695E-1;-2,400700331E0
1,658298741E2;-1,629941225E0;-8,775079250E-1;-1,551750422E0
1,659298741E2;1,359175146E-2;1,444696337E-1;-2,434297949E-1
1,660298741E2;1,083674908E0;1,219592452E0;1,989588141E0
1,661298741E2;8,371908069E-1;5,871942043E-1;2,894279480E0
1,662298741E2;4,699080884E-1;-3,171917796E-1;1,521970749E0
1,663298741E2;-1,356120855E-1;-3,434589803E-1;-7,134906054E-1
1,664298741E2;-6,024658680E-1;1,017090604E-1;-1,716836810E0
1,665298741E2;-1,239903688E0;-9,923505783E-1;-2,386192322E0
1,666298741E2;-1,240820050E0;-1,105971575E0;-1,153619051E0
1,667298741E2;4,356996417E-1;-5,377141237E-1;2,893974185E-1
1,668298741E2;1,296408772E0;1,286329508E0;2,105194330E0
1,669298741E2;8,240572214E-1;5,540547967E-1;2,758972883E0
1,670298741E2;1,391245574E-1;-7,286095023E-1;1,047328472E0
1,671298741E2;2,565634064E-2;2,780964077E-1;-1,092074394E0
1,672298741E2;-5,476406813E-1;-3,878994286E-1;-2,128559828E0
1,673298741E2;-1,511586070E0;-1,007164121E0;-1,880701423E0
1,674298741E2;-8,161159754E-1;-6,140722632E-1;-1,167210817E0
1,675298741E2;6,104071140E-1;9,831876159E-1;8,723155856E-1
1,676298741E2;1,134224057E0;7,394523621E-1;2,532647371E0
1,677298741E2;6,560692787E-1;-2,738203406E-1;2,529134750E0
1,678298741E2;9,346238524E-2;-6,134614348E-1;1,333213449E-1
1,679298741E2;3,054326214E-2;5,833762884E-1;-1,567327499E0
1,680298741E2;-5,739079118E-1;-4,150829315E-1;-2,213775635E0
1,681298741E2;-1,527773976E0;-1,070694089E0;-1,759902716E0
1,682298741E2;-4,848742783E-1;-2,822197378E-1;-8,156577945E-1
1,683298741E2;8,970556259E-1;1,280678988E0;1,448361516E0
1,684298741E2;9,570731521E-1;7,086036801E-1;2,817921400E0
1,685298741E2;5,070181489E-1;-1,252273768E-1;2,320524454E0
1,686298741E2;4,062253982E-2;-9,234755635E-1;-1,336267740E-1
1,687298741E2;-2,788599730E-1;4,028656185E-1;-1,409266114E0
1,688298741E2;-8,049677014E-1;-5,238169432E-2;-2,301892996E0
1,689298741E2;-1,431868076E0;-9,346238375E-1;-1,786017299E0
1,690298741E2;9,773843922E-3;5,245805383E-1;-5,577199459E-1
1,691298741E2;1,218828917E0;1,998751044E0;1,551597714E0
1,692298741E2;9,668469429E-1;6,293439269E-1;2,979953289E0
1,693298741E2;1,896736622E-1;2,134974003E-1;1,915978789E0
1,694298741E2;-9,269879758E-2;-1,220203280E0;-2,548835278E-1
1,695298741E2;-5,039638281E-1;1,279762685E-1;-1,566258430E0
1,696298741E2;-8,057312369E-1;-8,210029006E-1;-2,478280306E0
1,697298741E2;-1,367574573E0;-1,199739337E0;-1,520901799E0
1,698298741E2;9,529497474E-2;8,491026610E-2;-5,268712714E-2
1,699298741E2;1,147510409E0;1,180955291E0;2,392606497E0
1,700298741E2;7,886270285E-1;2,640464902E-1;2,890767097E0
1,701298741E2;4,127921760E-1;-4,349360466E-1;1,355357289E0
1,702298741E2;7,956519723E-2;4,841107130E-2;-8,999572396E-1
1,703298741E2;-3,901901841E-1;1,634064466E-1;-1,848783612E0
1,704298741E2;-1,116508961E0;-5,134322643E-1;-2,295173407E0
1,705298741E2;-1,103680730E0;-6,418666840E-1;-1,182176948E0
1,706298741E2;4,419609904E-1;8,414669037E-1;4,550946057E-1
1,707298741E2;1,051451802E0;1,419345379E0;2,457052708E0
1,708298741E2;6,298020482E-1;2,696970105E-1;2,829680443E0
1,709298741E2;4,917465150E-2;-3,006984293E-1;9,618073106E-1
1,710298741E2;-3,219259977E-1;1,950187236E-1;-1,153008103E0
1,711298741E2;-4,763221741E-1;-4,948008433E-2;-1,641089439E0
1,712298741E2;-1,313360333E0;-8,772025108E-1;-2,077094555E0
1,713298741E2;-7,250970602E-1;-4,216497242E-1;-1,214094639E0
1,714298741E2;4,702135324E-1;6,386595964E-1;6,461427212E-1
1,715298741E2;1,045953989E0;1,048855662E0;2,668870211E0
1,716298741E2;6,440047026E-1;-1,160643995E-1;2,554943800E0
1,717298741E2;1,043052375E-1;-6,255260110E-1;2,819143236E-1
1,718298741E2;-2,289217561E-1;5,033529401E-1;-1,410640597E0
1,719298741E2;-4,470006526E-1;-2,298380435E-1;-2,160783052E0
1,720298741E2;-1,457982659E0;-7,929030657E-1;-1,850310802E0
1,721298741E2;-6,757696867E-1;8,017606288E-2;-1,066418052E0
1,722298741E2;7,031059265E-1;9,422596693E-1;1,225090265E0
1,723298741E2;1,060462117E0;5,792529583E-1;2,769510269E0
1,724298741E2;6,415612102E-1;-4,184426963E-1;2,347402334E0
1,725298741E2;5,283984542E-2;-9,355401397E-1;2,962696366E-2
1,726298741E2;-5,233588219E-1;5,100724846E-2;-1,399186850E0
1,727298741E2;-7,701483369E-1;1,580613852E-1;-2,332588911E0
1,728298741E2;-1,614822268E0;-6,623306274E-1;-1,785711884E0
1,729298741E2;-3,953825235E-1;-3,504839242E-1;-7,457137704E-1
1,730298741E2;1,089172721E0;1,235169530E0;1,738369823E0
1,731298741E2;1,042747021E0;4,581489265E-1;2,852435350E0
1,732298741E2;9,356928468E-1;-2,849686444E-1;1,761277199E0
1,733298741E2;2,932153270E-2;-8,028296232E-1;-5,224425197E-1
1,734298741E2;-4,491386712E-1;2,603813112E-1;-1,394605398E0
1,735298741E2;-1,048702955E0;-3,077233732E-1;-2,334574223E0
1,736298741E2;-1,611309767E0;-5,470298529E-1;-1,451568484E0
1,737298741E2;-1,273654103E-1;-1,742493063E-1;-3,877467215E-1
1,738298741E2;1,126130104E0;1,844660282E0;1,867873192E0
1,739298741E2;8,680394888E-1;6,979135424E-2;2,904664278E0
1,740298741E2;6,853908300E-1;-1,719585657E-1;1,699885249E0
1,741298741E2;-1,084285788E-2;-2,660318017E-1;-6,288857460E-1
1,742298741E2;-5,865833759E-1;2,035708427E-1;-1,525483251E0
1,743298741E2;-1,246775985E0;-8,126034737E-1;-2,482250929E0
1,744298741E2;-1,406364560E0;-7,066183686E-1;-1,445918083E0
1,745298741E2;2,277000248E-1;2,638937831E-1;-8,521570265E-2
1,746298741E2;1,182787776E0;1,412167788E0;2,259743214E0
1,747298741E2;8,242099285E-1;2,666426897E-1;2,928335190E0
1,748298741E2;5,674937963E-1;-5,413793325E-1;1,015105367E0
1,749298741E2;-1,351539344E-1;1,588249579E-2;-9,485210180E-1
1,750298741E2;-4,842634201E-1;-1,918116808E-1;-1,917811394E0
1,751298741E2;-1,423010588E0;-2,240348309E-1;-2,020895004E0
1,752298741E2;-1,178359032E0;-1,098335743E0;-1,106429696E0
1,753298741E2;3,669773042E-1;7,530441284E-1;3,483459055E-1
1,754298741E2;1,107651353E0;1,443780065E0;2,310292244E0
1,755298741E2;7,803803682E-1;-1,959350258E-1;2,892904997E0
1,756298741E2;2,408336252E-1;-1,188285589E0;1,085202098E0
1,757298741E2;-3,573561832E-2;1,505782902E-1;-1,174693823E0
1,758298741E2;-5,645921826E-1;-4,057672322E-1;-1,593136549E0
1,759298741E2;-1,620778203E0;-9,552405477E-1;-2,160325050E0
1,760298741E2;-7,625125647E-1;-1,797471046E-1;-1,308626056E0
1,761298741E2;5,800165534E-1;9,497427344E-1;6,882924438E-1
1,762298741E2;1,051757216E0;1,009454846E0;2,460259676E0
1,763298741E2;6,707300544E-1;-2,919935882E-1;2,709492683E0
1,764298741E2;5,421429127E-2;-1,024420977E0;3,880521357E-1
1,765298741E2;-2,362521291E-1;2,829833329E-1;-1,420567155E0
1,766298741E2;-4,824308157E-1;-7,696902007E-2;-2,160477638E0
1,767298741E2;-1,654375792E0;-9,624181986E-1;-1,917353272E0
1,768298741E2;-4,470006526E-1;-4,245513305E-2;-9,523389339E-1
1,769298741E2;1,056033254E0;1,266170979E0;1,207069755E0
1,770298741E2;1,112843752E0;5,989533663E-1;2,770426512E0
1,771298741E2;8,628471494E-1;-1,084285825E-1;2,151009321E0
1,772298741E2;9,666942805E-2;-7,887797356E-1;-1,314887404E-1
1,773298741E2;-3,440698385E-1;3,972151279E-1;-1,856266737E0
1,774298741E2;-7,545713186E-1;-4,621195495E-1;-2,271044254E0
1,775298741E2;-1,733330131E0;-7,629706860E-1;-1,678810358E0
1,776298741E2;-2,429716438E-1;2,825251780E-2;-5,148066878E-1
1,777298741E2;1,016327024E0;1,248608589E0;1,958433986E0
1,778298741E2;8,384125233E-1;3,327688277E-1;2,874579191E0
1,779298741E2;6,270532012E-1;-3,665191531E-1;1,869553089E0
1,780298741E2;-1,278235465E-1;-6,259841323E-1;-5,076290369E-1
1,781298741E2;-3,391829133E-1;6,963863969E-2;-1,538311362E0
1,782298741E2;-1,198670268E0;-7,609853745E-1;-2,392453671E0
1,783298741E2;-1,529148459E0;-7,486153841E-1;-1,399950385E0
1,784298741E2;1,675297916E-1;3,845396638E-1;-3,174972236E-1
1,785298741E2;1,251510143E0;1,472032547E0;1,972789288E0
1,786298741E2;8,665123582E-1;1,186605766E-1;2,863278151E0
1,787298741E2;5,977316499E-1;-6,313292384E-1;1,485471606E0
1,788298741E2;-5,864306539E-2;4,123340361E-3;-8,112290502E-1
1,789298741E2;-4,120286107E-1;5,100724846E-2;-1,684155464E0
1,790298741E2;-1,337947607E0;-8,263479471E-1;-2,446362495E0
1,791298741E2;-1,271515965E0;-6,339253783E-1;-1,311375022E0
1,792298741E2;3,756821156E-1;5,998696685E-1;2,041817009E-1
1,793298741E2;1,067334294E0;1,219897866E0;2,432312727E0
1,794298741E2;7,475463152E-1;2,591595948E-1;2,932458639E0
1,795298741E2;5,233588219E-1;-6,223189831E-1;9,605855942E-1
1,796298741E2;-3,588833287E-2;1,446223408E-1;-1,033125877E0
1,797298741E2;-6,235406995E-1;-4,276056588E-2;-1,799761772E0
1,798298741E2;-1,554804802E0;-8,071057200E-1;-2,277611017E0
1,799298741E2;-9,561568499E-1;-5,583308339E-1;-1,328326464E0
1,800298741E2;2,738203406E-1;3,197879493E-1;5,803219676E-1
1,801298741E2;1,005636930E0;7,993171811E-1;2,794555664E0
1,802298741E2;9,221010804E-1;-2,287690341E-1;2,773480892E0
1,803298741E2;2,700024247E-1;-1,076650023E0;2,353358418E-1
1,804298741E2;-3,003929853E-1;4,138612151E-1;-1,357800722E0
1,805298741E2;-3,121521473E-1;-1,218676195E-1;-2,214081049E0
1,806298741E2;-1,496161699E0;-7,441865802E-1;-1,901318073E0
1,807298741E2;-4,744895697E-1;-3,291036487E-1;-1,070694089E0
1,808298741E2;9,292787313E-1;1,099251986E0;1,001819015E0
1,809298741E2;1,222188592E0;7,643451095E-1;2,745381117E0
1,810298741E2;7,489207983E-1;-2,779436857E-2;2,409099817E0
1,811298741E2;8,781187981E-2;-1,048855662E0;3,219259977E-1
1,812298741E2;-3,077233732E-1;5,053382516E-1;-1,528384805E0
1,813298741E2;-5,283984542E-1;-2,962696366E-2;-2,290591955E0
1,814298741E2;-1,777006984E0;-1,038165450E0;-1,504408360E0
1,815298741E2;-6,010913849E-1;9,514226019E-2;-1,021824837E0
1,816298741E2;8,619308472E-1;1,000444531E0;1,459357023E0
1,817298741E2;1,068861485E0;6,537785530E-1;2,770731926E0
1,818298741E2;6,059783101E-1;-4,002694488E-1;2,317164660E0
1,819298741E2;3,543018550E-2;-8,268061280E-1;1,832595794E-3
1,820298741E2;-2,583959997E-1;3,549126983E-1;-1,622763515E0
1,821298741E2;-5,800165534E-1;-2,302961946E-1;-2,195144176E0
1,822298741E2;-1,630857468E0;-7,183775306E-1;-1,488220453E0
1,823298741E2;-4,013384581E-1;-2,275473066E-2;-8,660541773E-1
1,824298741E2;9,718865752E-1;1,223257661E0;1,351539373E0
1,825298741E2;1,157895088E0;4,680754840E-1;2,755307674E0
1,826298741E2;6,611089110E-1;-5,899431109E-1;2,175138474E0
1,827298741E2;8,827003092E-2;-6,275113225E-1;-2,605340183E-1
1,828298741E2;-2,767219543E-1;3,744603992E-1;-1,628719449E0
1,829298741E2;-7,037167549E-1;-2,124283910E-1;-2,279596329E0
1,830298741E2;-1,733177423E0;-6,747006774E-1;-1,478904724E0
1,831298741E2;-3,706424832E-1;-9,208793938E-2;-6,688974500E-1
1,832298741E2;8,518515825E-1;1,131627917E0;1,759597301E0
1,833298741E2;8,063421249E-1;2,725986242E-1;2,810132742E0
1,834298741E2;7,338019013E-1;-3,510948122E-1;2,146885872E0
1,835298741E2;8,185594529E-2;-7,841982841E-1;-3,155119121E-1
1,836298741E2;-3,946189582E-1;4,793764949E-1;-1,576490521E0
1,837298741E2;-8,112290502E-1;-4,550946057E-1;-2,352289438E0
1,838298741E2;-1,615433097E0;-7,965682745E-1;-1,389565706E0
1,839298741E2;-1,973094791E-1;6,261368748E-3;-5,968153477E-1
1,840298741E2;1,025184631E0;1,286482215E0;1,832748413E0
1,841298741E2;9,463829994E-1;4,124867618E-1;2,818990469E0
1,842298741E2;7,215845585E-1;-2,974913716E-1;1,973858356E0
1,843298741E2;-6,108652451E-4;-5,922338367E-1;-2,524400651E-1
1,844298741E2;-2,335032374E-1;4,870123267E-1;-1,698358059E0
1,845298741E2;-8,362745047E-1;-5,826127529E-1;-2,465604782E0
1,846298741E2;-1,568243742E0;-7,829765081E-1;-1,427744746E0
1,847298741E2;-1,163698286E-1;2,318233550E-1;-5,143485069E-1
1,848298741E2;9,645562172E-1;1,307098866E0;1,874745488E0
1,849298741E2;9,442449808E-1;3,904955983E-1;2,871371984E0
1,850298741E2;6,904304624E-1;-2,390010208E-1;1,881464958E0
1,851298741E2;-1,198823079E-1;-6,551529765E-1;-4,004221559E-1
1,852298741E2;-5,497786999E-1;4,129449129E-1;-1,477988482E0
1,853298741E2;-7,359399199E-1;-2,104430795E-1;-2,535548925E0
1,854298741E2;-1,561066151E0;-6,128505468E-1;-1,415374756E0
1,855298741E2;-9,132435173E-2;-1,053742506E-2;-6,036875844E-1
1,856298741E2;1,091158032E0;1,266934514E0;1,684766293E0
1,857298741E2;1,028544307E0;6,380487680E-1;2,930778742E0
1,858298741E2;6,285803318E-1;-4,628831446E-1;2,067015171E0
1,859298741E2;-6,902777404E-2;-6,133087277E-1;-2,764165103E-1
1,860298741E2;-4,135557711E-1;5,354233980E-1;-1,667814851E0
1,861298741E2;-7,519751191E-1;-3,411682248E-1;-2,409863472E0
1,862298741E2;-1,634369969E0;-6,403394938E-1;-1,624596119E0
1,863298741E2;-2,156354338E-1;2,889392674E-1;-5,830708742E-1
1,864298741E2;1,016632438E0;1,318247199E0;1,842674971E0
1,865298741E2;1,016785145E0;5,436700583E-1;2,811354637E0
1,866298741E2;6,711881757E-1;-3,063489199E-1;1,902234316E0
1,867298741E2;-1,498146951E-1;-6,015495658E-1;-5,123631954E-1
1,868298741E2;-4,240931869E-1;1,844813079E-1;-1,479057431E0
1,869298741E2;-7,302893996E-1;-3,277291954E-1;-2,435672522E0
1,870298741E2;-1,641700387E0;-7,683157325E-1;-1,296714187E0
1,871298741E2;-1,366810948E-1;1,985312067E-2;-6,545420885E-1
1,872298741E2;1,004415154E0;1,481959105E0;1,678199530E0
1,873298741E2;9,921978712E-1;3,197879493E-1;2,919783115E0
1,874298741E2;6,659958363E-1;-3,086396754E-1;2,030363321E0
1,875298741E2;2,809980139E-2;-9,323330522E-1;-3,578143120E-1
1,876298741E2;-4,178318381E-1;2,579378486E-1;-1,430188298E0
1,877298741E2;-6,681338549E-1;-1,831068546E-1;-2,423760653E0
1,878298741E2;-1,778839588E0;-6,296493411E-1;-1,550375938E0
1,879298741E2;-2,438879460E-1;1,039998084E-1;-6,366742849E-1
1,880298741E2;8,651378751E-1;1,786933541E0;1,313665748E0
1,881298741E2;1,064738154E0;4,227187634E-1;2,849838972E0
1,882298741E2;7,470881939E-1;-5,283984542E-1;2,285552263E0
1,883298741E2;5,513058975E-2;-8,596401215E-1;2,122756653E-2
1,884298741E2;-5,166392922E-1;4,263839424E-1;-1,601383209E0
1,885298741E2;-5,719226003E-1;-8,460483700E-2;-2,072054863E0
1,886298741E2;-1,524414182E0;-1,059545755E0;-1,628261328E0
1,887298741E2;-4,622722864E-1;2,938261926E-1;-1,004415154E0
1,888298741E2;7,018841505E-1;9,715811610E-1;1,227686405E0
1,889298741E2;1,121395826E0;6,623306274E-1;2,622902632E0
1,890298741E2;8,028296232E-1;-3,103195429E-1;2,426814795E0
1,891298741E2;6,215553731E-2;-9,254608750E-1;3,124575615E-1
1,892298741E2;-1,354593635E-1;2,930625975E-1;-1,484707952E0
1,893298741E2;-3,949243724E-1;-9,315694682E-3;-2,014633656E0
1,894298741E2;-1,605201125E0;-6,232352853E-1;-1,818698525E0
1,895298741E2;-9,095783234E-1;-6,339253783E-1;-1,131169677E0
1,896298741E2;5,888741016E-1;9,717338681E-1;5,749769211E-1
1,897298741E2;1,094975948E0;7,611380816E-1;2,329229116E0
1,898298741E2;7,956519723E-1;-5,528330430E-2;2,814867020E0
1,899298741E2;3,037527502E-1;-5,033529401E-1;7,585419416E-1
1,900298741E2;-6,872233748E-2;2,044871449E-1;-1,012203693E0
1,901298741E2;-4,321871698E-1;-4,688390717E-2;-1,610851645E0
1,902298741E2;-1,325577617E0;-6,667594314E-1;-2,062128305E0
1,903298741E2;-1,187216640E0;-7,452555895E-1;-1,474323273E0
1,904298741E2;6,352998316E-2;2,573269904E-1;-5,345070735E-2
1,905298741E2;1,176679134E0;1,659109950E0;2,099085808E0
1,906298741E2;6,015495658E-1;1,620320082E-1;2,957809448E0
1,907298741E2;2,251038402E-1;-6,383541822E-1;1,677130580E0
1,908298741E2;-1,487456858E-1;-1,452332139E-1;-6,571382880E-1
1,909298741E2;-4,787656367E-1;-4,688390717E-2;-1,469130874E0
1,910298741E2;-9,637926221E-1;-7,539604306E-1;-2,263561249E0
1,911298741E2;-1,458135366E0;-7,715228200E-1;-1,367574573E0
1,912298741E2;-3,010038435E-1;-3,411682248E-1;-3,269656301E-1
1,913298741E2;1,558470011E0;1,351233959E0;1,439962149E0
1,914298741E2;1,374294043E0;3,561344445E-1;2,692693949E0
1,915298741E2;9,873109460E-1;-5,206099153E-1;1,971720338E0
1,916298741E2;1,737911552E-1;-2,822197378E-1;-3,620903790E-1
1,917298741E2;-4,369213581E-1;4,134030640E-1;-1,367727280E0
1,918298741E2;-6,895141602E-1;-9,987647086E-2;-2,337017775E0
1,919298741E2;-1,739286065E0;-5,561928153E-1;-1,631162882E0
1,920298741E2;-5,907067060E-1;1,467603743E-1;-9,109528065E-1
1,921298741E2;7,058547735E-1;9,666942358E-1;1,275181174E0
1,922298741E2;1,069014192E0;5,129740834E-1;2,603660345E0
1,923298741E2;6,589708924E-1;-5,297728777E-1;2,393522739E0
1,924298741E2;1,139263660E-1;-8,200865984E-1;2,377792895E-1
1,925298741E2;-3,303253949E-1;2,060143054E-1;-1,137125611E0
1,926298741E2;-7,675521970E-1;-2,196060568E-1;-2,006081581E0
1,927298741E2;-1,694692850E0;-8,179485798E-1;-1,738980651E0
1,928298741E2;-7,315111160E-1;-7,460191846E-1;-1,280068159E0
1,929298741E2;7,551821470E-1;4,948008358E-1;4,306600094E-1
1,930298741E2;1,476308584E0;8,084801435E-1;2,165669918E0
1,931298741E2;8,868235946E-1;-3,891211748E-1;2,758972883E0
1,932298741E2;5,476406813E-1;-5,378668308E-1;9,469938278E-1
1,933298741E2;-1,134682223E-1;2,861903608E-1;-1,123992085E0
1,934298741E2;-6,786713004E-1;-1,713477075E-1;-1,673770785E0
1,935298741E2;-1,372766972E0;-6,721044779E-1;-2,369088173E0
1,936298741E2;-1,159880400E0;-7,464773059E-1;-1,554957509E0
1,937298741E2;3,381139040E-1;4,909829497E-1;2,214386463E-1
1,938298741E2;1,320385218E0;9,659306407E-1;2,193769693E0
1,939298741E2;1,021519423E0;-7,910704613E-2;2,879007816E0
1,940298741E2;7,292203903E-1;-5,086980462E-1;1,320079803E0
1,941298741E2;-1,191187203E-1;-4,086688459E-1;-9,611964822E-1
1,942298741E2;-4,796819389E-1;-1,282817032E-2;-1,593441963E0
1,943298741E2;-1,104291677E0;-7,838928103E-1;-2,306474447E0
1,944298741E2;-1,376126647E0;-6,137668490E-1;-1,631315589E0
1,945298741E2;5,925392732E-2;2,672535367E-2;-5,012149215E-1
1,946298741E2;1,138958216E0;1,068861485E0;1,701259732E0
1,947298741E2;1,158811331E0;2,698497176E-1;2,700329781E0
1,948298741E2;8,631525636E-1;-6,960809231E-1;1,955379605E0
1,949298741E2;1,024726480E-1;-7,973318696E-1;-1,632537395E-1
1,950298741E2;-2,446515262E-1;1,252273768E-1;-1,424385071E0
1,951298741E2;-4,349360466E-1;-4,589125216E-1;-2,369546175E0
1,952298741E2;-1,379486442E0;-9,075930119E-1;-1,798692703E0
1,953298741E2;-5,074763298E-1;-2,741257846E-1;-1,092379808E0
1,954298741E2;7,929030657E-1;8,649851680E-1;8,220719099E-1
1,955298741E2;1,427592039E0;1,019075990E0;2,369851828E0
1,956298741E2;1,131933331E0;-5,233588219E-1;2,429105759E0
1,957298741E2;5,564982295E-1;-4,902193546E-1;8,347473741E-1
1,958298741E2;-5,073235631E-1;1,434006095E-1;-8,529205918E-1
1,959298741E2;-6,331618428E-1;1,270599663E-1;-8,886561990E-1
1,960298741E2;-5,934556127E-1;-4,627304152E-2;-1,664607763E0
1,961298741E2;-2,141082734E-1;-9,315694869E-2;-9,248499870E-1
1,962298741E2;1,101084575E-1;-3,452915847E-1;-7,628179789E-1
1,963298741E2;4,780020565E-2;-2,507601976E-1;-2,672535479E-1
1,964298741E2;1,853975952E-1;-1,693623960E-1;-9,010262042E-2
1,965298741E2;1,178969890E-1;6,719517522E-3;3,008511290E-2
1,966298741E2;-1,420261711E-2;-2,064724565E-1;9,789115191E-2
1,967298741E2;-8,796459436E-2;-5,254968405E-1;4,906775057E-1
1,968298741E2;-1,572977938E-2;-2,547308207E-1;-4,569272101E-1
1,969298741E2;2,098322064E-1;-3,167336285E-1;-6,183483601E-1
1,970298741E2;9,468411654E-2;2,567161322E-1;-6,365215778E-1
1,971298741E2;1,348485053E-1;1,634064466E-1;2,397646010E-2
1,972298741E2;4,098905921E-1;-1,343292713E0;-1,682933718E-1
1,973298741E2;3,573561832E-2;4,915938079E-1;-5,006040931E-1
1,974298741E2;-2,486221492E-1;-4,257730842E-1;-6,760751009E-1
1,975298741E2;-2,892446816E-1;1,519527286E-1;-3,338378668E-1
1,976298741E2;-8,017606288E-2;6,288857460E-1;5,192354787E-3
1,977298741E2;2,386955917E-1;4,341724813E-1;1,125671983E0
1,978298741E2;6,751587987E-1;3,127630055E-1;1,838093519E0
1,979298741E2;8,810204268E-1;-6,157521605E-1;2,607630968E0
1,980298741E2;9,138544202E-1;-4,795292020E-2;1,456913590E0
1,981298741E2;-1,930334121E-1;1,496619880E-1;-5,028948188E-1
1,982298741E2;-8,205447197E-1;6,824892163E-1;-1,495245457E0
1,983298741E2;-5,496259928E-1;-3,014619946E-1;-1,350470304E0
1,984298741E2;-1,221730486E-1;-2,900082767E-1;-1,029307961E0
1,985298741E2;2,724458873E-1;-9,040805697E-2;-8,527678847E-1
1,986298741E2;1,226311997E-1;-1,432479024E-1;-6,858489513E-1
1,987298741E2;3,478877544E-1;1,585195363E-1;-5,128213763E-1
1,988298741E2;2,596177161E-1;2,813034356E-1;1,120937690E-1
1,989298741E2;2,188424766E-1;4,657847434E-2;3,500257730E-1
1,990298741E2;8,246681094E-2;2,390010208E-1;-1,255328059E-1
1,991298741E2;-2,805398703E-1;9,941831976E-2;-3,011565804E-1
1,992298741E2;-2,669481039E-1;1,681406647E-1;-1,035416573E-1
1,993298741E2;-1,992947906E-1;2,177734673E-1;3,459024429E-1
1,994298741E2;-1,110247597E-1;-1,464549452E-1;3,827070892E-1
1,995298741E2;-3,446807265E-1;1,740965992E-1;-7,620543987E-2
1,996298741E2;-4,625777006E-1;3,573561609E-1;-1,298088674E-2
1,997298741E2;-1,834122837E-1;1,737911552E-1;3,371976018E-1
1,998298741E2;-2,031126991E-2;-3,321579695E-1;4,428772926E-1
1,999298741E2;-2,570215464E-1;-3,087923825E-1;3,252857551E-2
2,000298741E2;-4,028656185E-1;-5,690209866E-1;-2,837468982E-1
2,001298741E2;-4,269948006E-1;-5,574145317E-1;-7,577783465E-1
2,002298741E2;-2,293798923E-1;-4,358523488E-1;-8,738427162E-1
2,003298741E2;-3,457497358E-1;-1,811062694E0;-6,009386778E-1
2,004298741E2;4,511239827E-1;-6,753115058E-1;-3,034473062E-1
2,005298741E2;9,335548282E-1;-1,782199293E-1;9,628763199E-1
2,006298741E2;1,380708218E0;3,955352306E-2;1,830304980E0
2,007298741E2;1,323286891E0;-7,605272532E-1;2,073887587E0
2,008298741E2;4,955644310E-1;-7,739662528E-1;1,154535294E0
2,009298741E2;-1,133155003E-1;1,389718428E-2;-6,255260110E-1
2,010298741E2;-3,859141171E-1;-1,098793864E0;-3,379611969E-1
2,011298741E2;1,496619824E-2;-1,979203373E-1;-1,108262300E0
2,012298741E2;-7,376197726E-2;-8,359690905E-1;-2,936734557E-1
2,013298741E2;1,200350225E-1;-7,672467232E-1;-6,168211699E-1
2,014298741E2;1,681406647E-1;-6,348416805E-1;-5,195409060E-1
2,015298741E2;4,375322461E-1;-7,029531598E-1;-8,373435140E-1
2,016298741E2;4,601342380E-1;-6,731734872E-1;-5,632177591E-1
2,017298741E2;5,025894046E-1;-5,241223574E-1;-9,205739498E-1
