"Time (s)";"Acceleration x (m/s^2)";"Acceleration y (m/s^2)";"Acceleration z (m/s^2)"
2,708586100E-2;-3,914059639E0;4,359124660E0;7,987840176E0
9,288624800E-2;-4,436293125E0;4,088137627E0;9,640682220E0
1,928862480E-1;-4,185046673E0;4,905286312E0;1,166321564E1
2,928862480E-1;-3,248256683E0;1,176670551E0;8,484351158E0
3,928862480E-1;-1,853241086E0;1,420738459E0;8,367700577E0
4,928862480E-1;-3,026920557E-1;6,281159520E-1;7,367500782E0
5,928862480E-1;1,505085468E0;8,171489239E-1;9,035896301E0
6,928862480E-1;2,171486616E-1;1,600200176E0;8,502895355E0
7,928862480E-1;2,083550215E0;4,912465096E0;1,044227791E1
8,928862480E-1;3,142374277E0;-3,050848842E-2;2,180459738E0
9,928862480E-1;4,531407833E0;1,393819153E-1;6,081956863E0
1,092886248E0;6,455835342E0;-3,334996462E0;4,616353035E0
1,192886248E0;1,144965649E1;-7,040282249E0;8,559126854E0
1,292886248E0;1,674796295E1;-4,395615101E0;8,644669533E0
1,392886248E0;1,431685638E1;-2,806781054E0;4,990829945E0
1,492886248E0;5,769095421E0;-4,164109707E0;-3,510270834E0
1,592886248E0;9,282955170E0;-4,698905468E0;8,092526436E0
1,692886248E0;9,961320877E0;-7,194021225E0;5,770890236E0
1,792886248E0;1,101775169E1;-3,134597778E0;6,267998695E0
1,892886248E0;6,349354744E0;-2,639283419E0;-8,123632669E-1
1,992886248E0;9,016156197E0;-1,919641972E0;2,398206472E0
2,092886248E0;9,393623352E0;-5,883352757E0;3,880560160E0
2,192886248E0;1,290090370E1;-8,029714584E0;1,226919770E0
2,292886248E0;5,762515068E0;-4,659423828E0;4,133601189E-1
2,392886248E0;6,447460651E0;-2,392224550E0;1,430309772E0
2,492886248E0;6,722635269E0;-4,585246563E0;6,508477330E-1
2,592886248E0;6,159125328E0;-1,104407310E1;2,009970903E0
2,692886248E0;1,130967617E1;-1,041954613E1;-1,931007862E0
2,792886248E0;4,441078663E0;-5,574678421E0;-1,460818172E0
2,892886248E0;3,829712629E0;-3,966103554E0;-6,640082598E-2
2,992886248E0;5,666203976E0;-6,944569588E0;1,223928809E0
3,092886248E0;1,289312649E1;-1,056610680E1;-2,721237659E0
3,192886248E0;5,126024246E0;-4,010969162E0;-2,942573547E0
3,292886248E0;4,607978344E0;-2,359921217E0;-8,895317912E-1
3,392886248E0;2,199602127E0;-4,436293125E0;-2,865405083E-1
3,492886248E0;4,075575352E0;-7,115656376E0;2,153540403E-2
3,592886248E0;5,871986866E0;-1,034836006E1;7,561319470E-1
3,692886248E0;2,673979402E-1;-4,660022259E0;-4,881358147E-1
3,792886248E0;9,571290761E-2;-7,726424217E0;-6,735795736E-1
3,892886248E0;-1,854437590E-1;-1,218066406E1;-2,438884497E0
3,992886248E0;-2,102692842E0;-8,381459236E0;-1,609771490E0
4,092886248E0;-1,601396561E0;-6,059225082E0;-1,096511006E0
4,192886248E0;7,316055298E-1;-8,659027100E0;-3,361915827E0
4,292886248E0;-4,103690982E-1;-8,222934723E0;3,469592705E-2
4,392886248E0;-3,594019651E0;-1,442931843E1;1,317248821E0
4,492886248E0;-2,643470764E0;-1,254197979E1;1,256231904E0
4,592886248E0;7,112665176E-1;-9,021539688E0;-1,481157184E0
4,692886248E0;3,367897868E-1;-6,029912949E0;-1,171884894E0
4,792886248E0;8,668000102E-1;-1,002592659E1;-1,610369682E0
4,892886248E0;-3,080160856E0;-1,676291847E1;-4,151547253E-1
4,992886248E0;-1,293320656E0;-7,270591736E0;-7,082754970E-1
5,092886248E0;-7,040880919E-1;-6,132206440E0;-1,202991605E0
5,192886248E0;2,820539713E0;-1,229611778E1;-3,270988464E0
5,292886248E0;-6,320042610E0;-1,246241856E1;2,979064286E-1
5,392886248E0;-3,320041418E0;-1,438505173E1;3,792025566E0
5,492886248E0;-3,236890793E0;-1,100160027E1;-5,575276613E-1
5,592886248E0;-2,200200319E0;-8,659027100E0;-7,932206988E-1
5,692886248E0;-5,976074338E-1;-7,560721397E0;-7,645068169E-1
5,792886248E0;-1,543370605E0;-8,475378036E0;9,499505758E-1
5,892886248E0;-2,721835673E-1;-9,081958771E0;-1,464407444E0
5,992886248E0;8,309076428E-1;-1,041715336E1;-2,714059114E0
6,092886248E0;1,213759303E0;-1,683709717E1;-7,280163169E-1
6,192886248E0;-3,738187075E0;-9,216554642E0;6,957131624E-1
6,292886248E0;-5,910272002E-1;-8,285148144E-1;-7,202396393E-1
6,392886248E0;-5,252245665E-1;-4,797011375E0;-1,155135155E0
6,492886248E0;-1,778465390E0;-7,135995388E0;-3,587439299E0
6,592886248E0;-2,325823545E0;-8,409575462E0;-1,716850251E-1
6,692886248E0;-4,975874901E0;-9,594022751E0;1,321436286E0
6,792886248E0;1,794616925E-3;-1,378923893E1;-7,950153351E-1
6,892886248E0;5,349753380E0;-7,456035137E0;-7,411170006E0
6,992886248E0;-2,492722988E0;-4,747360229E0;4,109074593E0
7,092886248E0;-1,633699656E0;-1,498146248E1;-2,002194405E0
7,192886248E0;1,016949583E-2;-9,853045464E0;-3,916452408E0
7,292886248E0;4,746761799E0;-1,159860992E1;-1,248455167E0
7,392886248E0;2,123031855E0;-9,089137077E0;-4,601397991E0
7,492886248E0;-8,225327492E0;-2,035574150E1;6,260820389E0
7,592886248E0;-4,191029072E0;-1,080598736E1;3,281157970E0
7,692886248E0;-3,994219303E0;-7,682157040E0;-2,618944407E0
7,792886248E0;3,500101328E0;-1,064626598E1;-5,904290080E-1
7,892886248E0;1,189232826E0;-1,256291676E1;-4,642075896E-1
7,992886248E0;-6,671787739E0;-1,387179089E1;-2,515454769E0
8,092886248E0;-7,798807144E0;-1,418166161E1;4,630111754E-1
8,192886248E0;-1,524227977E0;-6,462415695E0;2,937189937E-1
8,292886248E0;-3,409173965E0;-3,840480447E-1;2,143370867E0
8,392886248E0;3,935595036E0;-1,760160255E1;-5,247459888E0
8,492886248E0;1,057627559E0;-6,637690067E0;-6,063412666E0
8,592886248E0;-5,258825779E0;-5,155934811E0;2,615355253E0
8,692886248E0;-2,492722988E0;-1,065404320E1;3,497708559E0
8,792886248E0;-9,960124493E-1;-8,184051514E0;1,879562140E0
8,892886248E0;-2,160120726E0;-7,878966808E0;1,107876897E0
8,992886248E0;-3,720839322E-1;-1,024068260E1;6,849454641E-1
9,092886248E0;-2,871387303E-1;-1,213938713E1;1,393819213E0
9,192886248E0;-4,938187599E0;-1,290389442E1;-2,355135679E0
9,292886248E0;-8,050053596E0;-1,350927830E1;1,316650629E0
9,392886248E0;-1,813759565E0;-5,810969830E0;-2,015953064E-1
9,492886248E0;-2,918047190E0;-1,113858938E0;1,604985833E0
9,592886248E0;3,452843189E0;-1,816810417E1;-6,135795593E0
9,692886248E0;1,201795220E0;-7,499704361E0;-5,182255745E0
9,792886248E0;-4,559523582E0;-4,948955536E0;4,738985062E0
9,892886248E0;-1,368096352E0;-1,232722378E1;3,282354355E0
9,992886248E0;-1,625324726E0;-7,971090317E0;1,816152334E0
1,009288625E1;-3,195016384E0;-8,566903114E0;-1,937588096E0
1,019288625E1;-1,529611826E0;-9,886545181E0;1,460219979E0
1,029288625E1;-3,493520916E-1;-1,228654575E1;-1,860419661E-1
1,039288625E1;-4,792225361E0;-1,232782269E1;-2,224726915E0
1,049288625E1;-2,565704107E0;-9,611370087E0;1,076770186E0
1,059288625E1;-1,262812138E0;-7,325028419E0;-9,092726111E-1
1,069288625E1;-2,539382935E0;-3,927220106E0;-1,147956610E0
1,079288625E1;5,114060402E0;-1,839303017E1;-6,964908600E0
1,089288625E1;-3,128017426E0;-1,242891884E1;8,392825127E-1
1,099288625E1;-5,024927616E0;-8,349754333E0;8,015955687E-1
1,109288625E1;-1,505085468E0;-1,174397373E1;1,585244983E-1
1,119288625E1;-1,232901812E0;-7,682755470E0;1,247856975E0
1,129288625E1;-2,171486616E0;-9,418747902E0;-1,039681435E0
1,139288625E1;1,369891018E-1;-1,056191921E1;7,591229677E-1
1,149288625E1;6,257231236E-1;-1,215494061E1;-1,124626637E0
1,159288625E1;-6,906882763E0;-1,532782364E1;-3,278166950E-1
1,169288625E1;1,133001566E0;-1,081376362E1;1,167697430E0
1,179288625E1;-2,317448616E0;-4,071387768E0;9,936196208E-1
1,189288625E1;-6,227321029E-1;-7,748558044E0;-3,731008768E0
1,199288625E1;3,551547050E0;-1,599422455E1;-5,011168957E0
1,209288625E1;-5,657230854E0;-1,115832996E1;8,572286963E-1
1,219288625E1;-3,014956474E0;-6,669394970E0;4,033700943E0
1,229288625E1;-5,862415433E-1;-1,037647533E1;-2,500499785E-1
1,239288625E1;-2,212164640E0;-7,152745247E0;2,663211584E0
1,249288625E1;-8,219345808E-1;-9,324830055E0;9,667003751E-1
1,259288625E1;-1,290927768E0;-1,180558872E1;1,920240223E-1
1,269288625E1;7,004988194E-1;-1,210528946E1;-1,256231871E-2
1,279288625E1;-8,076375008E0;-1,296012592E1;-1,572084427E0
1,289288625E1;1,930409670E0;-9,672387123E0;9,427721500E-1
1,299288625E1;-3,375674486E0;-2,270788670E0;8,644071817E-1
1,309288625E1;1,670190215E0;-9,970891953E0;-4,990829945E0
1,319288625E1;2,166102648E0;-8,406583786E0;-3,771088600E0
1,329288625E1;-6,318846226E0;-1,376351547E1;-2,084148407E0
1,339288625E1;-2,021935225E0;-1,343869019E1;2,359323025E0
1,349288625E1;3,948157281E-2;-9,843474388E0;-1,722832322E-1
1,359288625E1;-3,518047571E0;-7,930412292E0;-4,109672904E-1
1,369288625E1;-1,302293777E0;-8,864809990E0;1,451845169E0
1,379288625E1;-3,493520916E-1;-1,194138145E1;-7,274180651E-1
1,389288625E1;4,426721931E-1;-1,194616699E1;1,794617064E-2
1,399288625E1;-6,604788780E0;-1,400279808E1;-1,393819213E0
1,409288625E1;7,836494446E-1;-1,215075302E1;-1,481755376E0
1,419288625E1;-2,344367981E0;-2,481955290E0;3,768695518E-2
1,429288625E1;5,276174068E0;-9,035896301E0;-6,664609432E0
1,439288625E1;1,254437327E0;-4,652843475E0;-5,584249973E0
1,449288625E1;-1,788036704E0;-1,536909962E1;-4,163511276E0
1,459288625E1;-3,108874798E0;-9,931410789E0;-1,207179070E0
1,469288625E1;1,244866014E0;-1,002413273E1;-5,413761139E-1
1,479288625E1;-2,090728760E0;-1,109013462E1;3,403790295E-1
1,489288625E1;-4,959124923E-1;-9,900901794E0;-8,524430394E-1
1,499288625E1;5,736792088E-1;-6,187839508E0;7,770691514E-1
1,509288625E1;-3,602992773E0;-1,411884975E1;1,622333765E0
1,519288625E1;-4,724030018E0;-1,751127434E1;1,702493310E0
1,529288625E1;-1,264606714E0;-9,269794464E0;3,308077157E-1
1,539288625E1;-2,662015259E-1;-8,279166222E0;2,787638307E-1
1,549288625E1;-1,342971683E0;-1,217647648E1;6,221339107E-1
1,559288625E1;-5,778666735E-1;-1,166441250E1;-2,490928411E0
1,569288625E1;2,949153781E-1;-7,216753006E0;5,862415582E-2
1,579288625E1;-8,464609981E-1;-3,442673683E0;6,915257573E-1
1,589288625E1;3,382853031E0;-5,116453171E0;-3,449851990E0
1,599288625E1;6,283552170E0;-1,153041458E1;-6,160920143E0
1,609288625E1;3,469592705E-2;-1,054756260E1;-2,955734253E0
1,619288625E1;-1,124626622E-1;-7,967501163E0;-2,039283037E0
1,629288625E1;-7,788637877E-1;-9,461818695E0;-3,008974493E-1
1,639288625E1;-6,269195080E-1;-1,000798035E1;1,157527924E0
1,649288625E1;-1,351346612E0;-8,594420433E0;5,982056856E-1
1,659288625E1;-3,815355778E0;-8,521439552E0;1,272981644E0
1,669288625E1;-3,318845034E0;-8,405387878E0;5,575276613E-1
1,679288625E1;-2,090130568E0;-9,848857880E0;8,015955687E-1
1,689288625E1;-1,395015597E0;-1,129472065E1;6,281159073E-2
1,699288625E1;-3,803989887E0;-1,091246796E1;1,179661512E0
1,709288625E1;-4,531407833E0;-1,168594742E1;-1,211964726E0
1,719288625E1;-5,796613097E-1;-7,972885132E0;-2,362912297E-1
1,729288625E1;-2,997608662E0;-3,544966698E0;9,332008660E-2
1,739288625E1;3,775275946E0;-1,205025482E1;-4,076771736E0
1,749288625E1;2,533401012E0;-8,994022369E0;-3,110071182E0
1,759288625E1;-4,101297855E0;-6,540780544E0;1,372283816E0
1,769288625E1;-2,940180779E0;-1,130010509E1;2,976671457E0
1,779288625E1;-2,001596212E0;-7,760521889E0;2,175075769E0
1,789288625E1;-3,007778168E0;-7,821538925E0;1,013958573E0
1,799288625E1;-9,284151793E-1;-9,706484795E0;5,569294691E-1
1,809288625E1;-2,165504545E-1;-1,105424213E1;1,000199914E0
1,819288625E1;-1,609173179E0;-1,195274734E1;7,824530005E-1
1,829288625E1;-8,556135178E0;-1,541037560E1;2,419741869E0
1,839288625E1;-2,321037948E-1;-8,943773270E0;-5,527420044E-1
1,849288625E1;-2,264208317E0;-3,955335855E0;9,481559992E-1
1,859288625E1;6,969096065E-1;-9,241081238E0;-2,930609465E0
1,869288625E1;7,078567505E0;-1,307797241E1;-3,223132133E0
1,879288625E1;-3,840480447E-1;-1,454477215E1;-3,645465374E0
1,889288625E1;-3,288336515E0;-6,923034191E0;4,912465096E0
1,899288625E1;-2,303689957E0;-1,062114143E1;-6,412764788E-1
1,909288625E1;-1,316052526E-1;-8,527421951E0;-2,159522474E-1
1,919288625E1;1,031306505E0;-6,908079147E0;-2,475973129E0
1,929288625E1;1,962114573E-1;-7,487142086E0;-7,375875711E-1
1,939288625E1;1,627717614E0;-9,064012527E0;-2,216351986E0
1,949288625E1;-4,289134443E-1;-1,478764439E1;-2,354537487E0
1,959288625E1;-2,030908108E0;-1,020658493E1;-1,529013634E0
1,969288625E1;-1,118644595E0;-6,131608009E0;-1,090528965E0
1,979288625E1;1,067198873E0;-1,064686394E1;-3,749552965E0
1,989288625E1;3,868596077E0;-9,028717995E0;-1,896910191E0
1,999288625E1;-4,344169617E0;-1,255274773E1;1,639083475E-1
2,009288625E1;-1,106680512E0;-1,030648518E1;-1,220339537E-1
2,019288625E1;3,762713671E-1;-8,255238533E0;-1,465603858E-1
2,029288625E1;8,536394835E-1;-8,106883049E0;-1,804188251E0
2,039288625E1;5,587241054E-1;-1,026999474E1;-1,752742529E0
2,049288625E1;-4,168895245E0;-1,246481133E1;-1,895713687E0
2,059288625E1;-2,321037948E-1;-5,431109428E0;-3,290131092E-1
2,069288625E1;7,274180651E-1;-9,702896118E0;-3,973880291E0
2,079288625E1;3,389433384E0;-1,014197922E1;8,518448472E-1
2,089288625E1;-2,314457655E0;-1,393400478E1;3,069393158E0
2,099288625E1;-2,104487419E0;-1,518186188E1;3,227319479E0
2,109288625E1;-1,074975610E0;-8,444271088E0;-3,014956415E-1
2,119288625E1;-1,782652885E-1;-7,244270325E0;-1,360917926E0
2,129288625E1;7,764709592E-1;-9,456435204E0;3,391826153E-1
2,139288625E1;3,556332588E0;-1,306720448E1;-4,330410957E0
2,149288625E1;-3,409772158E0;-6,300302029E0;-1,076770201E-1
2,159288625E1;-1,155135155E0;-5,127819061E0;-1,241276741E0
2,169288625E1;1,296311617E0;-1,021854877E1;-3,266202927E0
2,179288625E1;1,612762451E0;-8,224729538E0;-1,192223907E0
2,189288625E1;-5,046463013E0;-1,265444279E1;-4,767699242E-1
2,199288625E1;-5,312066078E-1;-1,468774319E1;1,878963947E0
2,209288625E1;-4,977070987E-1;-8,387441635E0;-9,332008660E-2
2,219288625E1;1,055832982E0;-5,877370834E0;-8,201399446E-1
2,229288625E1;8,057830334E-1;-9,254241943E0;-9,637092948E-1
2,239288625E1;3,017947674E0;-1,842652893E1;-5,334199905E0
2,249288625E1;-1,938186288E0;-5,860620975E0;-1,140778184E0
2,259288625E1;-1,588834286E0;-4,455435753E0;-7,956135273E-1
2,269288625E1;-2,482553422E-1;-1,317727470E1;-3,632304668E0
2,279288625E1;-3,386442184E0;-1,069352436E1;-2,353939295E0
2,289288625E1;-2,105085611E0;-9,701699257E0;2,556730986E0
2,299288625E1;-4,038486481E0;-9,878767967E0;1,245464206E0
2,309288625E1;1,753939033E0;-9,987043381E0;-1,155135155E0
2,319288625E1;-1,156929731E0;-7,247859955E0;-2,236690998E0
2,329288625E1;-1,972284079E0;-7,101299286E0;2,589632273E0
2,339288625E1;-2,321037948E-1;-1,144307613E1;-1,354935765E0
2,349288625E1;2,980858803E0;-1,384427357E1;-3,133401155E0
2,359288625E1;2,980858803E0;-1,384427357E1;-3,133401155E0
2,369288625E1;-1,752742529E-1;-1,219681549E1;1,609173268E-1
2,379288625E1;1,400997639E0;-1,286620712E1;-7,160521746E-1
2,389288625E1;-1,362114310E0;-7,426125050E0;-1,186840057E0
2,399288625E1;-4,284348965E0;-6,092126369E0;3,836891174E0
2,409288625E1;2,821137905E0;-7,111468792E0;-3,768695593E-1
2,419288625E1;1,325623751E0;-1,554736519E1;-2,280359983E0
2,429288625E1;-1,225723386E0;-1,458425403E0;3,334996462E0
2,439288625E1;-5,068596363E0;-2,066561317E1;-5,137988567E0
2,449288625E1;3,122035265E0;-1,358046532E1;-2,189432681E-1
2,459288625E1;2,528615236E0;-7,830512047E0;-2,836691141E0
2,469288625E1;-1,613958836E0;-1,220100307E1;3,337987661E0
2,479288625E1;-1,262213945E0;-9,793225288E0;-2,196611166E0
2,489288625E1;4,671986103E0;-1,205743313E1;-3,265006542E0
2,499288625E1;5,170889854E0;-1,020718288E1;-3,875176191E0
2,509288625E1;-9,808179855E0;-1,301456261E1;-3,010769129E0
2,519288625E1;-2,757728100E-1;-1,326640701E1;3,302693367E0
2,529288625E1;-2,471187592E0;-8,657830238E0;1,822134495E0
2,539288625E1;-1,426720500E0;-7,350750923E0;1,183250785E0
2,549288625E1;1,149751306E0;-9,969097137E0;5,724828243E-1
2,559288625E1;1,281954765E0;-1,170329571E1;4,187439568E-3
2,569288625E1;-3,132802963E0;-1,203051376E1;1,016949654E0
2,579288625E1;-2,370090723E0;-1,070728302E1;-1,031306505E0
2,589288625E1;-5,665007830E-1;-6,643074036E0;-1,576870084E0
2,599288625E1;-2,255833626E0;-4,028914928E0;1,938186288E-1
2,609288625E1;5,129613400E0;-1,319880962E1;-3,892524242E0
2,619288625E1;3,828516230E-2;-9,653244972E0;-3,932005882E0
2,629288625E1;-3,725624800E0;-1,319342613E1;1,938186288E0
2,639288625E1;-3,406781197E0;-1,188275719E1;1,837089539E0
2,649288625E1;-1,413560033E0;-9,457033157E0;1,362114310E0
2,659288625E1;-1,741376638E0;-8,982057571E0;1,521237016E0
2,669288625E1;-2,144567251E0;-9,423533440E0;-5,042873621E-1
2,679288625E1;-1,776670814E-1;-9,989436150E0;1,548156261E0
2,689288625E1;-7,345965505E-1;-1,140598774E1;7,034898400E-1
2,699288625E1;-6,011966705E0;-1,370309734E1;5,952146053E-1
2,709288625E1;-2,654238462E0;-1,106919765E1;-2,005185366E0
2,719288625E1;-1,585245013E0;-5,261816978E0;1,022333503E0
2,729288625E1;-2,024926186E0;-5,458028316E0;-2,153540403E-1
2,739288625E1;5,803193092E0;-1,448854065E1;-5,636891842E0
2,749288625E1;2,831307411E0;-8,221738815E0;-3,860819340E0
2,759288625E1;-6,413362980E0;-4,709074974E0;-1,933998942E0
2,769288625E1;9,361918569E-1;-1,249053383E1;-1,444666624E0
2,779288625E1;-3,643072546E-1;-9,189635277E0;1,784447432E0
2,789288625E1;-2,858824968E0;-8,721240044E0;2,620140910E-1
2,799288625E1;-8,554341197E-1;-9,196813583E0;-5,844469070E-1
2,809288625E1;5,341976285E-1;-1,102134132E1;4,576273263E-1
2,819288625E1;-1,256231815E-1;-1,339023590E1;-9,822536707E-1
2,829288625E1;-2,609373093E0;-1,183131123E1;-2,590230465E0
2,839288625E1;-6,275177598E-1;-9,669994354E0;7,788637877E-1
2,849288625E1;-2,126022816E0;-3,881756544E0;8,614161611E-2
2,859288625E1;-1,429711580E-1;-9,463015556E0;-1,508076429E0
2,869288625E1;4,067798331E-2;-9,339784622E0;-2,593819857E0
2,879288625E1;-6,263213158E-1;-1,292842102E1;-4,109672904E-1
2,889288625E1;-3,742972851E0;-8,727820396E0;1,962712765E0
2,899288625E1;-5,443671346E-1;-1,008933640E1;1,699502230E0
2,909288625E1;-8,189435601E-1;-1,010249710E1;5,246263742E-1
2,919288625E1;-6,424728632E-1;-9,809376717E0;3,122633696E-1
2,929288625E1;-9,589236975E-1;-9,703494072E0;1,139581800E0
2,939288625E1;-1,009771109E0;-9,841081619E0;7,680960894E-1
2,949288625E1;-1,320239902E0;-9,655039787E0;9,439685345E-1
2,959288625E1;-1,013360381E0;-9,678369522E0;3,984049559E-1
2,969288625E1;-9,607182741E-1;-9,976275444E0;1,273579836E0
2,979288625E1;-1,444068432E0;-1,046740246E1;3,170489967E-1
2,989288625E1;1,698904037E-1;-1,039442158E1;-1,341775298E0
2,999288625E1;1,429711580E-1;-1,161236858E1;-3,403790295E-1
3,009288625E1;-9,134600163E-1;-9,725627899E0;-1,914258152E-1
3,019288625E1;-3,493520916E-1;-5,289932728E0;-7,501499057E-1
3,029288625E1;3,876372576E0;-6,409175396E0;-3,601198196E0
3,039288625E1;2,020140409E0;-7,252645493E0;-4,349553585E0
3,049288625E1;2,384447813E0;-1,382453251E1;-3,474378586E0
3,059288625E1;-2,478366137E0;-1,236371422E1;1,317248821E0
3,069288625E1;1,818545163E-1;-9,994221687E0;1,302891970E0
3,079288625E1;2,476571500E-1;-8,806185722E0;5,754738450E-1
3,089288625E1;-1,420140266E0;-8,825327873E0;1,805982947E0
3,099288625E1;-1,588235974E0;-8,727820396E0;-5,365904570E-1
3,109288625E1;6,460621357E-1;-1,039980507E1;1,336391449E0
3,119288625E1;7,800601721E-1;-1,058524895E1;-2,236690998E0
3,129288625E1;-2,477169752E0;-1,500598907E1;-2,108076811E0
3,139288625E1;1,398006678E0;-1,129711437E1;9,475577474E-1
3,149288625E1;-8,883354068E-1;-5,650052547E0;8,374879360E-1
3,159288625E1;2,608774900E0;-6,846463680E0;-4,095914364E0
3,169288625E1;3,366103172E0;-1,433001614E1;-5,515456200E0
3,179288625E1;-2,581257343E0;-1,781277084E1;-2,512463629E-1
3,189288625E1;-4,639683247E0;-6,470192432E0;4,761118889E0
3,199288625E1;2,285145670E-1;-1,128634644E1;-5,240281820E-1
3,209288625E1;-1,058823988E-1;-7,656434059E0;1,850250125E0
3,219288625E1;-9,972088337E-1;-1,024726295E1;-2,444268227E0
3,229288625E1;1,424327731E0;-1,105244732E1;1,883151412E0
3,239288625E1;1,877767563E0;-1,184626675E1;-1,229910851E0
3,249288625E1;-6,003592014E0;-1,471645737E1;2,185843468E0
3,259288625E1;5,126622319E-1;-1,067258739E1;2,378465652E0
3,269288625E1;-2,922832966E0;-2,519642353E0;2,431107759E0
3,279288625E1;-2,852244616E0;-5,155336380E0;-8,303094506E-1
3,289288625E1;4,511068821E0;-1,012702370E1;-4,468596458E0
3,299288625E1;-1,573280841E-1;-1,657867241E1;-1,749751568E0
3,309288625E1;-2,011167526E0;-1,235414314E1;4,001397610E0
3,319288625E1;-7,597211748E-2;-1,111705399E1;-8,985049129E-1
3,329288625E1;-8,871390224E-1;-7,350750923E0;1,488933921E0
3,339288625E1;-2,501696110E0;-8,851649284E0;-4,301098585E-1
3,349288625E1;1,338186026E0;-1,084128094E1;1,710269928E0
3,359288625E1;2,033899277E-1;-1,255334568E1;-1,460219979E0
3,369288625E1;-5,799603939E0;-1,554497242E1;2,007578135E0
3,379288625E1;-3,888336897E0;-1,228534985E1;-2,057827473E0
3,389288625E1;-1,542174220E0;-3,320639610E0;9,337990284E-1
3,399288625E1;-1,393819213E0;-2,785843849E0;-4,857429862E-1
3,409288625E1;3,563511133E0;-1,029870892E1;-5,553143024E0
3,419288625E1;1,521237016E0;-1,298525047E1;-2,039881229E0
3,429288625E1;-2,031506538E0;-9,409176826E0;4,202992916E0
3,439288625E1;-2,380858511E-1;-1,395135212E1;1,465603858E-1
3,449288625E1;-5,204389244E-2;-7,387839794E0;1,709671736E0
3,459288625E1;-1,484148264E0;-8,694919586E0;2,961117923E-1
3,469288625E1;1,096511006E0;-1,137009525E1;1,743769526E0
3,479288625E1;1,429711580E-1;-1,252822113E1;-1,303490162E0
3,489288625E1;-3,953541279E0;-1,711585999E1;3,860819340E0
3,499288625E1;-4,546362907E-2;-8,444869041E0;1,329811215E0
3,509288625E1;-2,944966555E0;-1,893320918E0;2,145165443E0
3,519288625E1;6,323033810E0;-1,470628834E1;-6,602993965E0
3,529288625E1;3,148954630E0;-8,897710800E0;-5,518447399E0
3,539288625E1;-4,159922123E0;-1,150110245E1;-1,270588875E0
3,549288625E1;-1,911267042E0;-7,797610760E0;5,994618893E0
3,559288625E1;5,970092416E-1;-9,253045082E0;9,224331379E-1
3,569288625E1;-2,006381750E0;-7,833503246E0;1,124028444E0
3,579288625E1;1,406979680E0;-9,363713264E0;6,245267391E-1
3,589288625E1;3,487538993E-1;-1,127079296E1;6,281159520E-1
3,599288625E1;5,491527915E-1;-1,172961617E1;-1,298106313E-1
3,609288625E1;-7,023532867E0;-1,626461411E1;3,315255880E0
3,619288625E1;1,023529887E0;-8,727222443E0;5,395814776E-1
3,629288625E1;-2,262413740E0;-2,747558594E0;2,108076811E0
3,639288625E1;5,777470112E0;-1,326521015E1;-6,184848309E0
3,649288625E1;3,891327858E0;-1,106261730E1;-4,814359188E0
3,659288625E1;-4,073780537E0;-1,164526939E1;-1,913061738E0
3,669288625E1;-9,266205430E-1;-7,744968891E0;4,727619171E0
3,679288625E1;6,287141442E-1;-1,020179939E1;-8,865407705E-1
3,689288625E1;2,392822690E-2;-7,707281590E0;2,457428932E0
3,699288625E1;-8,763712645E-1;-9,425926208E0;3,774677813E-1
3,709288625E1;1,023529887E0;-1,068814087E1;7,196413875E-1
3,719288625E1;6,089733839E-1;-1,226620674E1;-1,117448211E0
3,729288625E1;-6,643671989E0;-1,557189178E1;3,191427231E0
3,739288625E1;1,668993831E0;-1,026999474E1;9,714859724E-1
3,749288625E1;-2,587837696E0;-2,574677229E0;8,027920127E-1
3,759288625E1;2,925225735E0;-1,180917835E1;-6,237490654E0
3,769288625E1;1,913061738E0;-8,920442581E0;-4,782055855E0
3,779288625E1;-3,162713289E0;-1,295952702E1;-8,608179688E-1
3,789288625E1;-4,953143001E-1;-1,327418327E1;3,525824070E0
3,799288625E1;1,088734269E0;-1,104287624E1;-1,563111424E0
3,809288625E1;-3,575475216E0;-8,542376518E0;-4,235295951E-1
3,819288625E1;-1,079761267E0;-9,421739578E0;2,255235314E-1
3,829288625E1;9,571290612E-1;-1,235713387E1;1,292124242E-1
3,839288625E1;2,222932339E0;-1,223868942E1;-7,932206988E-1
3,849288625E1;-3,196810961E0;-1,274776268E1;-2,644068897E-1
3,859288625E1;1,766501307E0;-1,109073257E1;3,996013701E-1
3,869288625E1;-2,542972326E0;-2,932404041E0;1,235294700E0
3,879288625E1;-1,083350420E0;-7,387241840E0;-2,456232548E0
3,889288625E1;3,404986620E0;-7,886743546E0;-4,487140656E0
3,899288625E1;-1,699502230E0;-1,216690540E1;-7,603194118E-1
3,909288625E1;-1,209571838E0;-9,674181938E0;4,666004181E0
3,919288625E1;-3,122633696E-1;-1,207597733E1;-1,393221021E0
3,929288625E1;-1,264606714E0;-8,018946648E0;9,667003751E-1
3,939288625E1;-2,137388945E0;-8,784649849E0;-4,348955154E-1
3,949288625E1;3,056831062E-1;-1,070847988E1;5,874379873E-1
3,959288625E1;6,891329288E-1;-1,212144089E1;-5,647061467E-1
3,969288625E1;-5,583651543E0;-1,425583935E1;2,785843849E0
3,979288625E1;-1,310070395E0;-1,217348480E1;-1,214357495E0
3,989288625E1;-2,510669231E0;-4,813760757E0;1,448854089E0
3,999288625E1;2,347358942E0;-9,676574707E0;-4,898108006E0
4,009288625E1;5,549553871E0;-1,213161087E1;-3,929014683E0
4,019288625E1;-3,555734396E0;-1,383948803E1;-1,057627559E0
4,029288625E1;-3,320041418E0;-6,306882381E0;2,860021353E0
4,039288625E1;8,153542876E-1;-1,123310566E1;-2,303091764E0
4,049288625E1;-3,577269912E-1;-7,932207108E0;2,909074068E0
4,059288625E1;-1,558923960E0;-9,341579437E0;-3,924229145E-1
4,069288625E1;-7,776673883E-2;-9,573084831E0;1,360319614E0
4,079288625E1;1,871785522E0;-1,196052361E1;-1,390229940E0
4,089288625E1;-1,993221283E0;-1,173799133E1;-2,841476798E-1
4,099288625E1;8,081758618E-1;-1,139462185E1;-1,256231871E-2
4,109288625E1;-8,763712645E-1;-7,607979774E0;2,452643216E-2
4,119288625E1;-2,563311338E0;-4,517649174E0;-4,366901144E-2
4,129288625E1;5,538187981E0;-1,311386490E1;-5,982655048E0
4,139288625E1;8,452646136E-1;-1,042373371E1;-4,030111313E0
4,149288625E1;-2,341377020E0;-1,263948727E1;1,292124242E-1
4,159288625E1;-1,454237938E0;-1,198564816E1;1,546959877E0
4,169288625E1;1,302293777E0;-1,043928719E1;-1,674975827E-2
4,179288625E1;-2,629113913E0;-8,754141808E0;-1,932204217E-1
4,189288625E1;-1,176670551E0;-9,436694145E0;-1,036092162E0
4,199288625E1;8,703892231E-1;-1,213520050E1;6,580262445E-3
4,209288625E1;1,835893154E0;-1,186780167E1;-1,257428288E0
4,219288625E1;-3,668197155E0;-1,341536045E1;-6,939185858E-1
4,229288625E1;3,163311481E0;-1,128574753E1;1,563709617E0
4,239288625E1;-3,384647608E0;-3,000599623E0;3,601198196E-1
4,249288625E1;5,216951370E0;-1,125823021E1;-1,724626899E0
4,259288625E1;4,736592293E0;-7,764709473E0;-2,983849764E0
4,269288625E1;-2,059023857E0;-6,936194420E0;4,243670940E0
4,279288625E1;-1,235892892E0;-1,287876987E1;3,655036688E0
4,289288625E1;-7,836494446E-1;-6,886543751E0;2,225923300E0
4,299288625E1;-2,558525562E0;-8,612366676E0;-4,408775866E-1
4,309288625E1;1,792822361E0;-1,083649540E1;9,110672474E-1
4,319288625E1;4,959124923E-1;-1,204726410E1;-1,010967612E0
4,329288625E1;-4,786243439E0;-1,578246021E1;6,041877270E-1
4,339288625E1;-5,657829285E0;-1,509332657E1;-1,198804140E0
4,349288625E1;-1,694118381E0;-3,905086517E0;9,326026440E-1
4,359288625E1;-3,285345554E0;-1,807777524E0;1,099501967E0
4,369288625E1;4,401597023E0;-1,273280716E1;-6,238088608E0
4,379288625E1;2,229512453E0;-8,113463402E0;-2,255833626E0
4,389288625E1;-1,051047325E0;-6,559923172E0;4,639084816E0
4,399288625E1;-3,858426511E-1;-1,308993626E1;3,695714474E0
4,409288625E1;-4,731806815E-1;-7,650452137E0;2,504687071E0
4,419288625E1;-1,786242127E0;-8,732007980E0;-6,460621208E-2
4,429288625E1;2,075773716E0;-1,083709335E1;1,817348838E0
4,439288625E1;1,024726272E0;-1,211426258E1;-4,145565331E-1
4,449288625E1;-5,088337421E0;-1,617787361E1;2,274377823E0
4,459288625E1;-4,890331268E0;-1,371087360E1;-1,799402595E0
4,469288625E1;-1,326221943E0;-3,960719585E0;1,768295884E0
4,479288625E1;-3,523431301E0;-2,173281193E0;9,906286001E-1
4,489288625E1;5,824130535E0;-1,253300667E1;-4,688137531E0
4,499288625E1;-3,763311863E0;-1,310070419E1;-4,929214716E-1
4,509288625E1;-2,231905222E0;-7,147959232E0;4,695914268E0
4,519288625E1;1,034895778E0;-1,027537823E1;-7,238288224E-2
4,529288625E1;-4,552344978E-1;-7,478767395E0;2,146960020E0
4,539288625E1;-8,973084688E-1;-9,964311600E0;-1,133001566E0
4,549288625E1;3,000599623E0;-1,070189953E1;1,323230863E0
4,559288625E1;1,573280931E0;-1,232303619E1;-1,005583763E0
4,569288625E1;-4,587639332E0;-1,544267941E1;1,980658889E0
4,579288625E1;2,481357098E0;-9,631111145E0;1,628315806E0
4,589288625E1;-1,931007862E0;-3,595216036E0;1,137787223E0
4,599288625E1;3,796213150E0;-1,127677536E1;-5,864808083E0
4,609288625E1;5,821139336E0;-1,202034473E1;-5,252843857E0
4,619288625E1;-3,915854216E0;-1,423789310E1;-5,132604837E-1
4,629288625E1;-2,175673962E0;-6,055635929E0;3,333201885E0
4,639288625E1;6,909275651E-1;-1,030648518E1;-2,709871531E0
4,649288625E1;-4,576273263E-1;-7,376473904E0;2,525624275E0
4,659288625E1;-8,769695163E-1;-1,004506969E1;-1,762313843E0
4,669288625E1;1,143769264E0;-1,023350430E1;1,823929071E0
4,679288625E1;2,185245275E0;-1,260419369E1;-1,984846354E0
4,689288625E1;-4,993222713E0;-1,526441383E1;1,052841991E-1
4,699288625E1;2,783450842E0;-1,038425159E1;1,609173179E0
4,709288625E1;-1,600798368E0;-4,850849628E0;1,066002488E0
4,719288625E1;-4,642075896E-1;-8,438887596E0;-3,959523201E0
4,729288625E1;7,155735970E0;-1,449272823E1;-5,719444275E0
4,739288625E1;-1,211964726E0;-1,284467220E1;1,076770201E-1
4,749288625E1;-2,721835673E-1;-1,263290691E1;4,501497746E0
4,759288625E1;1,186241865E0;-1,066600704E1;-1,642074585E0
4,769288625E1;-2,071586132E0;-8,331210136E0;1,128215909E0
4,779288625E1;-2,181656122E0;-1,011625576E1;-2,306680918E0
4,789288625E1;6,173482537E-1;-1,152562809E1;9,487541914E-1
4,799288625E1;1,345364571E0;-1,139103222E1;-1,565504193E0
4,809288625E1;-6,190830231E0;-1,530329704E1;1,902294040E0
4,819288625E1;-6,993024349E-1;-1,111825085E1;4,097708762E-1
4,829288625E1;-2,770888567E0;-2,148754835E0;1,767099500E0
4,839288625E1;-1,749751568E0;-5,689534187E0;-1,563709617E0
4,849288625E1;2,169692039E0;-6,226722717E0;-5,092525005E0
4,859288625E1;-1,835893154E0;-1,299123192E1;-6,526423693E-1
4,869288625E1;-6,323033571E-1;-1,054457092E1;4,982454777E0
4,879288625E1;-5,276173949E-1;-1,149691486E1;-1,238883972E0
4,889288625E1;-1,453639746E0;-8,437690735E0;1,164108157E0
4,899288625E1;-1,872981906E0;-1,020179939E1;-1,989033818E0
4,909288625E1;1,649851203E0;-1,143649578E1;9,403793216E-1
4,919288625E1;1,802991867E0;-1,203529930E1;-2,649452925E0
4,929288625E1;-5,642873764E0;-1,495155239E1;3,541377485E-1
4,939288625E1;1,493719578E0;-1,038544846E1;1,231107235E0
4,949288625E1;-2,575275421E0;-1,934597135E0;1,906481385E0
4,959288625E1;-2,382653236E0;-5,636293888E0;-7,854440212E-1
4,969288625E1;2,806781054E0;-7,959724426E0;-5,907280922E0
4,979288625E1;-1,687538147E0;-1,246780205E1;-2,279163599E-1
4,989288625E1;-1,288534999E0;-9,476176262E0;5,414957523E0
4,999288625E1;3,278166950E-1;-8,450851440E0;1,243669510E0
5,009288625E1;-1,128814101E0;-8,294719696E0;1,694716692E0
5,019288625E1;9,266205430E-1;-9,672985077E0;9,750752449E-1
5,029288625E1;1,609771490E0;-1,091665554E1;1,237687469E0
5,039288625E1;-3,032902777E-1;-1,201555920E1;-2,482553422E-1
5,049288625E1;-6,608976364E0;-1,570828247E1;2,560918331E0
5,059288625E1;1,412363529E0;-8,536395073E0;8,913264424E-2
5,069288625E1;-2,021337032E0;-2,717648268E0;1,886740685E0
5,079288625E1;5,478367329E0;-1,341595840E1;-6,412166595E0
5,089288625E1;3,994219303E0;-1,080658531E1;-4,168296814E0
5,099288625E1;-2,677568436E0;-1,624188232E1;3,242274821E-1
5,109288625E1;-3,068794966E0;-5,718846321E0;4,538586140E0
5,119288625E1;9,194421172E-1;-1,008335495E1;-8,291130662E-1
5,129288625E1;-6,628118753E-1;-8,120641708E0;2,400001049E0
5,139288625E1;-1,514058471E0;-9,559326172E0;-1,292124271E0
5,149288625E1;1,027119160E0;-9,974481583E0;1,022931695E0
5,159288625E1;6,520441920E-2;-1,242174053E1;-1,345364571E0
5,169288625E1;-3,469592810E0;-1,194018459E1;-1,313061476E0
5,179288625E1;2,614158690E-1;-1,162014484E1;4,175475538E-1
5,189288625E1;-1,088136077E0;-7,776673794E0;2,697907388E-1
5,199288625E1;-2,635095835E0;-4,623531342E0;2,087737769E-1
5,209288625E1;5,248656273E0;-1,303729439E1;-6,082555294E0
5,219288625E1;1,728216171E0;-9,860821724E0;-3,391826153E0
5,229288625E1;-2,293520451E0;-1,294876003E1;-6,927221417E-1
5,239288625E1;-9,924231768E-1;-1,283629704E1;2,379063845E0
5,249288625E1;-9,493523836E-1;-7,575676441E0;1,703689694E0
5,259288625E1;-1,694716692E0;-8,682954788E0;4,821537733E-1
5,269288625E1;4,588237405E-1;-1,024128056E1;1,052243710E0
5,279288625E1;1,052842021E0;-1,165244770E1;1,082154036E0
5,289288625E1;7,172485590E-1;-1,161655617E1;4,660021961E-1
5,299288625E1;-5,516054630E0;-1,511246967E1;3,368496180E0
5,309288625E1;1,612164259E0;-8,516654015E0;1,040279627E0
5,319288625E1;-2,210968018E0;-2,758924484E0;1,648654819E0
5,329288625E1;7,435696602E0;-1,452862072E1;-6,468996048E0
5,339288625E1;4,028316975E0;-9,794421196E0;-5,003392220E0
5,349288625E1;-3,634099483E0;-1,086640549E1;-6,879364848E-1
5,359288625E1;-1,729412556E0;-8,278568268E0;4,450650215E0
5,369288625E1;1,383649707E0;-9,054440498E0;8,033902049E-1
5,379288625E1;-5,814558864E-1;-7,691130161E0;1,667797327E0
5,389288625E1;1,278963685E0;-1,020359421E1;8,937192559E-1
5,399288625E1;1,280160069E0;-1,099980545E1;6,101697683E-2
5,409288625E1;-5,294120312E-1;-1,533619881E1;-1,649851203E0
5,419288625E1;-7,707880020E0;-1,602892113E1;2,141576290E0
5,429288625E1;-6,921239495E-1;-5,404788017E0;7,782655358E-1
5,439288625E1;-2,290529490E0;-1,282552958E0;1,570289850E0
5,449288625E1;7,924430370E0;-1,672523117E1;-7,055835724E0
5,459288625E1;2,687139750E0;-6,031109333E0;-5,078765869E0
5,469288625E1;-3,834498405E0;-6,438487530E0;2,444866419E0
5,479288625E1;-1,226321578E0;-1,136889839E1;5,111667156E0
5,489288625E1;5,377869010E-1;-7,604390144E0;2,010569334E0
5,499288625E1;-8,027920127E-1;-1,021496010E1;-2,981456995E0
5,509288625E1;2,201995134E0;-1,038066292E1;2,012962103E0
5,519288625E1;1,765903115E0;-1,308634663E1;-1,083350420E0
5,529288625E1;-5,935994625E0;-1,644168282E1;5,617151260E-1
5,539288625E1;2,476571321E0;-1,037408257E1;1,957927108E0
5,549288625E1;-2,386242390E0;-3,238685369E0;1,326820135E0
5,559288625E1;1,189232826E0;-9,161520004E0;-4,861019135E0
5,569288625E1;5,819942951E0;-1,359721470E1;-5,813362598E0
5,579288625E1;-1,445264935E0;-1,483789349E1;2,536391914E-1
5,589288625E1;-3,818944931E0;-5,806782246E0;5,626124382E0
5,599288625E1;1,046859860E0;-1,077308559E1;-1,654038668E0
5,609288625E1;6,640082598E-2;-7,243672371E0;2,082952023E0
5,619288625E1;-1,356730461E0;-1,042373371E1;-2,127219439E0
5,629288625E1;2,565105915E0;-1,012223816E1;1,819143414E0
5,639288625E1;2,397010088E0;-1,174636650E1;-8,380861282E-1
5,649288625E1;-5,344369411E0;-1,748973846E1;1,827518344E0
5,659288625E1;3,476173162E0;-9,973284721E0;2,050050735E0
5,669288625E1;-2,377867460E0;-2,701496840E0;1,590628862E0
5,679288625E1;4,516452789E0;-1,182951736E1;-6,206383705E0
5,689288625E1;4,532006264E0;-1,204307652E1;-5,031507969E0
5,699288625E1;-5,991029739E0;-7,736593723E0;-8,081758618E-1
5,709288625E1;-2,014756680E0;-9,359525681E0;4,441078663E0
5,719288625E1;1,094118118E0;-9,918848038E0;9,086744189E-1
5,729288625E1;-1,764706671E-1;-7,089933395E0;1,942373753E0
5,739288625E1;4,857429862E-1;-9,283554077E0;-2,763710022E-1
5,749288625E1;2,913261652E-1;-1,212981606E1;-1,812563181E0
5,759288625E1;1,557129383E0;-1,263470173E1;1,085145116E0
5,769288625E1;-3,265604734E0;-1,213161087E1;-1,472782373E0
5,779288625E1;2,468196630E0;-8,678768158E0;1,332802176E0
5,789288625E1;-2,622533560E0;-2,734398127E0;5,491527915E-1
5,799288625E1;7,810173035E0;-1,558864117E1;-6,703492641E0
5,809288625E1;-8,039883971E-1;-1,214776230E1;-1,319043517E0
5,819288625E1;-4,033700943E0;-1,046261692E1;-9,720842242E-1
5,829288625E1;-1,974078715E-1;-1,401954746E1;7,094719410E-1
5,839288625E1;1,089930773E0;-8,892327309E0;-1,369891018E-1
5,849288625E1;-2,424527645E0;-8,810373306E0;-1,433300734E0
5,859288625E1;9,553344250E-1;-1,015992451E1;3,637090325E-1
5,869288625E1;7,501499057E-1;-1,144546890E1;-2,398804665E0
5,879288625E1;-1,734796464E-1;-1,282134151E1;4,325026870E-1
5,889288625E1;4,977070987E-1;-1,065942669E1;3,613162339E-1
5,899288625E1;6,520441771E-1;-6,600003242E0;1,190429255E-1
5,909288625E1;-2,440679073E0;-4,376472473E0;-4,905286431E-2
5,919288625E1;8,635098457E0;-1,664028740E1;-7,171289444E0
5,929288625E1;-6,987041831E-1;-1,312523079E1;1,417747438E-1
5,939288625E1;-4,748556614E0;-9,141778946E0;-2,452044964E0
5,949288625E1;9,332008660E-2;-1,301994610E1;-1,974078715E-1
5,959288625E1;-1,806581169E-1;-8,006384850E0;9,487541914E-1
5,969288625E1;-1,529611826E0;-9,787840843E0;-1,790429592E0
5,979288625E1;1,628913999E0;-9,720243454E0;-4,731806815E-1
5,989288625E1;1,342971683E0;-1,216092300E1;-2,149951220E0
5,999288625E1;-5,886343479E0;-1,585185146E1;-2,644068897E-1
6,009288625E1;2,792423964E0;-1,001994514E1;2,358126640E0
6,019288625E1;-2,609971285E0;-1,637288928E0;1,953739643E0
6,029288625E1;-1,710269928E0;-6,102894306E0;-1,442273855E0
6,039288625E1;2,703889608E0;-7,097710133E0;-4,678566456E0
6,049288625E1;5,084748268E-1;-1,539362621E1;3,332005441E-1
6,059288625E1;-2,079961061E0;-1,444307709E1;3,972683907E0
6,069288625E1;4,576273263E-1;-1,004327488E1;-4,498506486E-1
6,079288625E1;-2,181656122E0;-7,083951473E0;-6,131607890E-1
6,089288625E1;-2,434697002E-1;-9,141180992E0;3,026920557E-1
6,099288625E1;1,124028444E0;-1,242114258E1;-1,211964726E0
6,109288625E1;2,406581402E0;-1,226620674E1;4,007977992E-2
6,119288625E1;-2,280359983E0;-1,207238865E1;-2,248655081E0
6,129288625E1;2,273181438E0;-8,580661774E0;2,051845312E0
6,139288625E1;-2,968296528E0;-2,549552441E0;5,425725579E-1
6,149288625E1;4,424329281E0;-1,230030441E1;-6,520441532E0
6,159288625E1;-4,139583111E-1;-1,263171101E1;-2,568096876E0
6,169288625E1;-4,006781578E0;-8,623732567E0;1,964507341E0
6,179288625E1;-4,396811724E-1;-1,314975643E1;6,765705943E-1
6,189288625E1;2,967100143E-1;-8,008178711E0;1,832303882E0
6,199288625E1;-1,115653515E0;-1,004746246E1;-2,077568293E0
6,209288625E1;3,564109325E0;-9,522835732E0;1,146162033E0
6,219288625E1;2,128415823E0;-1,233200932E1;5,850451589E-1
6,229288625E1;-5,334797859E0;-1,851865196E1;1,344168067E0
6,239288625E1;1,095314622E0;-8,133802414E0;2,519642353E0
6,249288625E1;-3,086741209E0;-3,136990547E0;8,446664214E-1
6,259288625E1;2,382653236E0;-9,005986214E0;-5,106881618E0
6,269288625E1;2,111665964E0;-6,717251301E0;-3,915854216E0
6,279288625E1;-1,331007600E0;-1,123370457E1;3,870390654E-1
6,289288625E1;-2,054836512E0;-9,177073479E0;4,704289436E0
6,299288625E1;-5,706881881E-1;-1,223809147E1;1,160519004E0
6,309288625E1;4,468596280E-1;-8,179265976E0;1,930409670E0
6,319288625E1;-8,141579032E-1;-9,340981483E0;7,298108935E-2
6,329288625E1;5,670989752E-1;-1,090768242E1;1,637288928E0
6,339288625E1;1,322034448E-1;-1,143051338E1;-2,321038008E0
6,349288625E1;-5,294120312E0;-1,498505211E1;1,747358680E0
6,359288625E1;-3,915854216E0;-1,167637634E1;-8,213363886E-1
6,369288625E1;-1,366301775E0;-2,991626501E0;2,154138565E0
6,379288625E1;-2,439482689E0;-2,749353170E0;5,324030295E-2
6,389288625E1;2,372483730E0;-8,903095245E0;-5,982655048E0
6,399288625E1;-2,691925503E-2;-8,951549530E0;-1,239482164E0
6,409288625E1;-1,932802439E0;-7,237092018E0;4,211966038E0
6,419288625E1;-1,887338877E0;-1,355593872E1;3,056232691E0
6,429288625E1;-3,409772217E-1;-6,974479675E0;1,503889084E0
6,439288625E1;-2,081755638E0;-1,048953629E1;-4,325624943E0
6,449288625E1;1,340578914E0;-1,165543938E1;7,196413875E-1
6,459288625E1;2,697907448E0;-1,149392319E1;-1,091725349E0
6,469288625E1;-6,468996048E0;-1,644048691E1;-5,204389095E-1
6,479288625E1;5,437689424E-1;-9,522835732E0;1,821536183E0
6,489288625E1;-3,276372433E0;7,956135273E-2;2,258226395E0
6,499288625E1;7,327421188E0;-1,646142387E1;-7,315456867E0
6,509288625E1;-4,307080805E-2;-1,284527016E1;-8,129016876E0
6,519288625E1;-2,104487419E0;-9,221340179E0;4,506881237E0
6,529288625E1;2,153540403E-2;-1,460519123E1;-2,973082066E-1
6,539288625E1;-1,381855011E-1;-6,923034191E0;1,982453585E0
6,549288625E1;-3,205185890E0;-8,316853523E0;-3,467200041E0
6,559288625E1;2,313859463E0;-1,151246834E1;1,357926846E0
6,569288625E1;1,960918188E0;-1,232064342E1;-2,066202402E0
6,579288625E1;-5,916254044E0;-1,713320923E1;1,933998942E0
6,589288625E1;-1,135394335E0;-1,030169964E1;1,974078640E-2
6,599288625E1;-2,648256540E0;-3,332005441E-1;2,449054003E0
6,609288625E1;-1,798206210E0;-3,773481369E0;-1,427916884E0
6,619288625E1;2,748754978E0;-7,683951855E0;-5,037489891E0
6,629288625E1;-2,862414122E0;-1,408295727E1;-1,101894855E0
6,639288625E1;2,009970993E-1;-1,708415604E1;3,898506403E0
6,649288625E1;5,862415433E-1;-1,096810055E1;-4,636093974E-1
6,659288625E1;-1,970489502E0;-8,179265976E0;-1,530808330E0
6,669288625E1;3,750749528E-1;-1,017727280E1;2,373680115E0
6,679288625E1;2,982653379E0;-1,195693493E1;-7,597211599E-1
6,689288625E1;-4,278964996E0;-1,874178314E1;-4,252045631E0
6,699288625E1;-1,674975827E-2;-1,226740360E1;1,044467092E0
6,709288625E1;-2,374278307E0;-4,301098824E0;7,980063558E-1
6,719288625E1;-1,681556106E0;-3,955934048E0;-2,271985054E0
6,729288625E1;7,842476368E-1;-6,607181549E0;-5,738586903E0
6,739288625E1;-1,807777524E0;-1,294876003E1;1,355534077E0
6,749288625E1;-1,057627559E0;-1,511246967E1;4,756931305E0
6,759288625E1;1,241276741E0;-1,012642574E1;-7,016952634E-1
6,769288625E1;-3,369692564E0;-9,155537605E0;-2,859423161E0
6,779288625E1;1,646860242E0;-9,598209381E0;1,080957651E0
6,789288625E1;1,139581800E0;-1,294098282E1;-1,832902193E0
6,799288625E1;-1,481157184E0;-1,279980659E1;-1,674975827E-2
6,809288625E1;-1,680359721E0;-1,066241741E1;-4,390829504E-1
6,819288625E1;1,816750646E0;-6,610770702E0;6,149554253E-1
6,829288625E1;-1,380658627E0;-5,121238708E0;-1,737189293E0
6,839288625E1;5,001597404E0;-1,611685753E1;-7,382455826E0
6,849288625E1;-3,835694790E0;-1,134556866E1;1,097707391E0
6,859288625E1;-1,615155339E0;-7,731808186E0;3,789632797E0
6,869288625E1;7,962117195E-1;-1,023350430E1;-9,672985673E-1
6,879288625E1;5,192425251E-1;-7,009773731E0;2,492124796E0
6,889288625E1;1,730608940E0;-9,368498802E0;1,641476393E0
6,899288625E1;1,286142230E0;-1,158843994E1;8,727820516E-1
6,909288625E1;-1,387238979E0;-1,292483139E1;8,937192559E-1
6,919288625E1;-5,909673691E0;-1,567657757E1;2,003390789E0
6,929288625E1;2,342573404E0;-7,308876991E0;1,131206870E0
6,939288625E1;-2,776272535E0;-1,479362607E0;2,597409010E0
6,949288625E1;5,997610092E0;-1,578006744E1;-6,979863644E0
6,959288625E1;3,970290899E0;-1,050389290E1;-4,836492538E0
6,969288625E1;-4,735994339E0;-1,415653706E1;-3,233301640E0
6,979288625E1;-9,349954724E-1;-1,530808258E1;-5,353940725E-1
6,989288625E1;1,121037364E0;-8,889336586E0;4,187439568E-3
6,999288625E1;-2,833700180E0;-8,830712318E0;-5,012963414E-1
7,009288625E1;-6,041877270E-1;-9,674181938E0;8,488538265E-1
7,019288625E1;4,019941986E-1;-1,233679581E1;-1,935195327E0
7,029288625E1;-5,850451589E-1;-1,296790218E1;6,741777658E-1
7,039288625E1;-4,269991875E0;-1,175294685E1;-1,281954765E0
7,049288625E1;2,218744755E0;-8,604590416E0;1,550549030E0
7,059288625E1;-3,245863914E0;-2,428116798E0;6,861419082E-1
7,069288625E1;3,820141315E0;-1,124507046E1;-6,196812630E0
7,079288625E1;2,158924341E0;-1,378445339E1;-6,804589272E0
7,089288625E1;-6,372086525E0;-6,837490559E0;-2,364108801E0
7,099288625E1;-1,039083242E0;-1,550608921E1;-1,286142230E0
7,109288625E1;1,579262972E0;-9,537791252E0;9,445667267E-1
7,119288625E1;-2,191825628E0;-7,749155998E0;-6,083751321E-1
7,129288625E1;-7,304090858E-1;-9,339186668E0;9,529415965E-1
7,139288625E1;1,019940615E0;-1,174397373E1;-3,582055569E0
7,149288625E1;1,941177368E0;-1,259043407E1;1,555334777E-1
7,159288625E1;-4,591826439E0;-1,470748425E1;-1,429113269E0
7,169288625E1;1,923231244E0;-9,397810936E0;1,269990563E0
7,179288625E1;-3,504288673E0;-1,980060697E0;4,797609448E-1
7,189288625E1;5,188237667E0;-1,149452209E1;-7,668398380E0
7,199288625E1;3,272185028E-1;-9,570692062E0;-2,200798512E0
7,209288625E1;-4,858027935E0;-1,440658665E1;-9,134600163E-1
7,219288625E1;-2,178664923E0;-1,389332676E1;2,177468538E0
7,229288625E1;4,941178858E-1;-7,266404152E0;1,668993831E0
7,239288625E1;-7,405785918E-1;-9,838089943E0;-2,309073806E-1
7,249288625E1;9,972088337E-1;-1,050748253E1;1,847857237E0
7,259288625E1;6,299105883E-1;-1,183370399E1;-1,624726534E0
7,269288625E1;-5,224130154E0;-1,600678635E1;1,001994491E0
7,279288625E1;-2,003390789E0;-1,229312611E1;-1,250249863E0
7,289288625E1;-2,102692842E0;-3,250051260E0;2,092523336E0
7,299288625E1;-2,839682341E0;-3,090928555E0;1,226321608E-1
7,309288625E1;4,341178417E0;-1,225185013E1;-4,184448719E0
7,319288625E1;1,151545882E0;-1,220758247E1;-6,166304111E0
7,329288625E1;-1,755135417E0;-6,948757172E0;6,157330990E0
7,339288625E1;6,047859192E-1;-1,310130215E1;1,558923960E0
7,349288625E1;6,771687865E-1;-8,759525299E0;1,316650629E0
7,359288625E1;-9,595218897E-1;-8,483752251E0;1,808375716E0
7,369288625E1;-1,672582984E0;-9,570094109E0;-2,255235314E-1
7,379288625E1;1,523031592E0;-1,008694363E1;1,718644857E0
7,389288625E1;2,121835470E0;-1,237149143E1;-5,874379873E-1
7,399288625E1;-2,977867842E0;-1,244985580E1;-7,740781307E-1
7,409288625E1;1,387837172E0;-1,082393360E1;1,042074203E0
7,419288625E1;2,889333367E-1;-7,877770424E0;5,736792088E-1
7,429288625E1;-2,585444927E0;-4,784449100E0;-3,098705411E-1
7,439288625E1;6,535995007E0;-1,296610737E1;-7,601997375E0
7,449288625E1;1,714457393E0;-1,351705551E1;-2,278565407E0
7,459288625E1;-6,888936520E0;-6,548557281E0;-1,535593987E0
7,469288625E1;-5,790630579E-1;-1,320239925E1;-9,074779749E-1
7,479288625E1;-1,860419661E-1;-7,565506935E0;3,032304525E0
7,489288625E1;-1,990230203E0;-9,023334503E0;-3,768695593E-1
7,499288625E1;3,013760090E0;-9,833903313E0;1,793420553E0
7,509288625E1;-1,752742529E-1;-1,220219898E1;9,332008660E-2
7,519288625E1;-4,357329845E0;-1,471047497E1;1,010369420E0
7,529288625E1;-6,310471535E0;-1,395195103E1;-1,451246977E0
7,539288625E1;-1,389631748E0;-5,062614441E0;1,084546804E0
7,549288625E1;-3,013161898E0;-2,078166485E0;6,424728632E-1
7,559288625E1;6,066403389E0;-1,404885960E1;-6,281159401E0
7,569288625E1;4,421338081E0;-6,610172749E0;-5,656632900E0
7,579288625E1;-3,250649452E0;-8,667402267E0;2,693720102E0
7,589288625E1;-1,333400369E0;-1,083709335E1;4,862813950E0
7,599288625E1;1,695314884E0;-8,335397720E0;1,854437590E0
7,609288625E1;-1,205982566E0;-7,879564762E0;1,603191137E0
7,619288625E1;2,431705952E0;-1,122652531E1;1,009172916E0
7,629288625E1;2,189432681E-1;-1,140538883E1;8,673982024E-1
7,639288625E1;9,690931439E-2;-1,170927715E1;2,333002090E-1
7,649288625E1;-6,063412666E0;-1,564487267E1;2,129014015E0
7,659288625E1;2,097309113E0;-7,997411251E0;2,596212626E-1
7,669288625E1;-2,191227436E0;-2,882753134E0;1,946561217E0
7,679288625E1;5,560919762E0;-1,128873920E1;-6,373881340E0
7,689288625E1;3,755535126E0;-1,143290615E1;-5,105087280E0
7,699288625E1;-4,237090588E0;-1,316291714E1;-2,126621008E0
7,709288625E1;-2,676372051E0;-6,807580471E0;5,370092392E0
7,719288625E1;1,235294700E0;-1,010847950E1;-8,608179688E-1
7,729288625E1;-1,933400750E0;-8,412566185E0;3,343969584E-1
7,739288625E1;-8,069794178E-1;-9,512666702E0;-1,116251707E0
7,749288625E1;-2,697907388E-1;-1,065404320E1;-4,310669899E0
7,759288625E1;1,701895118E0;-1,028973579E1;7,262216806E-1
7,769288625E1;-3,156731367E0;-1,260239887E1;-1,815554142E0
7,779288625E1;4,187439755E-2;-1,007677460E1;2,611167669E0
7,789288625E1;-3,415156126E0;-1,896311998E0;4,277170599E-1
7,799288625E1;8,482556343E0;-1,704467392E1;-9,360123634E0
7,809288625E1;-8,691928387E-1;-1,663191223E1;8,925228715E-1
7,819288625E1;-5,361717224E0;-6,245266914E0;5,196014404E0
7,829288625E1;2,171486616E-1;-1,186899853E1;-9,481559992E-1
7,839288625E1;1,141376376E0;-6,742375851E0;1,047458172E0
7,849288625E1;-7,842476368E-1;-9,741181374E0;6,753742099E-1
7,859288625E1;2,933002472E0;-1,087896824E1;1,691725612E0
7,869288625E1;2,304886341E0;-1,098963642E1;-7,190431952E-1
7,879288625E1;-6,005386829E0;-1,827398682E1;2,084148407E0
7,889288625E1;3,260818958E0;-9,073583603E0;2,547159672E0
7,899288625E1;-2,294716835E0;-2,376671076E0;2,039881229E0
7,909288625E1;7,960920811E0;-1,241575813E1;-1,027358437E1
7,919288625E1;3,716651678E0;-1,280997562E1;-5,861817360E0
7,929288625E1;-5,122435093E0;-6,707081795E0;-2,213360965E-1
7,939288625E1;-2,205584288E0;-7,645666599E0;3,683750391E0
7,949288625E1;6,909275651E-1;-1,136112213E1;-6,927221417E-1
7,959288625E1;2,273181453E-2;-8,828319550E0;-8,656035662E-1
7,969288625E1;-1,834696770E0;-8,636893272E0;1,142572835E-1
7,979288625E1;2,682952404E0;-1,065224838E1;1,275374413E0
7,989288625E1;7,387840152E-1;-1,185165024E1;-2,507079840E0
7,999288625E1;-4,091128349E0;-1,640399551E1;1,325025558E0
8,009288625E1;-4,969294548E0;-1,192523003E1;-1,665404558E0
8,019288625E1;-9,714859724E-1;-4,727021217E0;1,731207132E0
8,029288625E1;-3,799204111E0;-2,815753937E0;6,460621357E-1
8,039288625E1;6,452246189E0;-1,487019634E1;-5,524429321E0
8,049288625E1;2,407777786E0;-7,959126472E0;-5,423332691E0
8,059288625E1;-4,037290096E0;-7,150352478E0;2,940180779E0
8,069288625E1;-7,794619799E-1;-1,141675472E1;4,716253281E0
8,079288625E1;8,733802289E-2;-8,279764175E0;-3,792623878E-1
8,089288625E1;-1,073779106E0;-8,196015358E0;2,072782516E0
8,099288625E1;1,097707391E0;-1,045543861E1;-7,166503668E-1
8,109288625E1;1,230509043E0;-1,056610680E1;2,480160713E0
8,119288625E1;-3,589234054E-1;-1,322752380E1;2,811566591E-1
8,129288625E1;-5,440082073E0;-1,592184162E1;2,437688112E0
8,139288625E1;-1,197607756E0;-5,950351715E0;1,198205948E0
8,149288625E1;-2,436491728E0;-2,827718258E0;1,608574986E0
8,159288625E1;7,685148239E0;-1,566820240E1;-7,779664516E0
8,169288625E1;3,516252756E0;-1,013719273E1;-4,600201607E0
8,179288625E1;-1,283749342E0;-1,334178066E1;-1,292124271E0
8,189288625E1;-3,123830080E0;-5,889334679E0;2,275574446E0
8,199288625E1;6,592226624E-1;-1,094058323E1;-1,080957651E0
8,209288625E1;-4,241278172E-1;-8,050651550E0;1,375274777E0
8,219288625E1;-2,181656122E0;-8,940183640E0;-1,104885817E0
8,229288625E1;1,887937069E0;-1,190369415E1;1,555932879E0
8,239288625E1;1,139581800E0;-1,267179012E1;-2,261815548E0
8,249288625E1;-4,017549038E0;-1,585484314E1;1,945963025E0
8,259288625E1;-4,913661480E0;-1,468116379E1;-2,567498684E0
8,269288625E1;-2,243271112E0;-1,969292998E0;2,144567251E0
8,279288625E1;-3,570091486E0;-2,276770830E0;3,164508045E-1
8,289288625E1;3,166900873E0;-9,734002113E0;-6,287141323E0
8,299288625E1;-6,945167780E-1;-1,226022530E1;-3,966103554E0
8,309288625E1;-9,320043921E-1;-9,089735031E0;3,582653761E0
8,319288625E1;-8,374879137E-3;-1,440778351E1;-2,397010088E0
8,329288625E1;-9,984052777E-1;-7,463213921E0;1,536192179E0
8,339288625E1;-2,314457655E0;-8,020741463E0;-2,246262312E0
8,349288625E1;2,234896421E0;-1,193539906E1;7,674978375E-1
8,359288625E1;3,453441381E0;-1,210469151E1;-1,953739643E0
8,369288625E1;-5,639284611E0;-1,711526299E1;1,907079697E0
8,379288625E1;1,501496196E0;-1,134257793E1;1,235294700E0
8,389288625E1;-3,473780155E0;-1,603191197E-1;2,858824968E0
8,399288625E1;-1,130010486E0;-5,471786976E0;-3,868596077E0
8,409288625E1;1,804786444E0;-6,722635269E0;-9,237491608E0
8,419288625E1;-5,564508915E0;-1,357627773E1;2,188834429E0
8,429288625E1;-1,188036442E0;-1,185464191E1;4,628317356E0
8,439288625E1;5,682953820E-2;-1,185643578E1;-2,041675806E0
8,449288625E1;-3,899104595E0;-8,253443718E0;-2,008176327E0
8,459288625E1;2,197209358E0;-9,885348320E0;1,031306505E0
8,469288625E1;1,592423439E0;-1,292722416E1;-1,013360381E0
8,479288625E1;-4,857429981E0;-1,444666672E1;2,362912297E-1
8,489288625E1;1,420738459E0;-9,857233047E0;2,425125837E0
8,499288625E1;-3,591028690E0;-1,500299811E0;2,081755638E0
8,509288625E1;-2,164906263E0;-5,437091351E0;-9,690931439E-2
8,519288625E1;4,792823792E0;-8,645268440E0;-5,160121918E0
8,529288625E1;-2,163709879E0;-1,280578899E1;-1,340578914E0
8,539288625E1;-8,099704385E-1;-9,721440315E0;4,838287354E0
8,549288625E1;-2,841476798E-1;-1,270708466E1;-3,458226919E0
8,559288625E1;-1,597807288E0;-7,289734364E0;1,280160069E0
8,569288625E1;-4,820341110E0;-9,795019150E0;-2,627319336E0
8,579288625E1;1,825125456E0;-1,236132145E1;7,752745152E-1
8,589288625E1;1,929811478E0;-1,230150127E1;-1,124626637E0
8,599288625E1;-4,639683247E0;-1,512802315E1;9,337990284E-1
8,609288625E1;1,900499344E0;-1,002473068E1;2,716451883E0
8,619288625E1;-3,738785267E0;-1,588834286E0;1,935195327E0
8,629288625E1;-8,189435601E-1;-7,577471256E0;-3,224926710E0
8,639288625E1;3,021536827E0;-7,402794838E0;-5,891727448E0
8,649288625E1;-3,482155085E0;-1,184207916E1;-9,284151793E-1
8,659288625E1;9,044869542E-1;-1,241815090E1;4,409972191E0
8,669288625E1;3,631108403E-1;-1,014736271E1;-1,168295622E0
8,679288625E1;-2,095514536E0;-7,721040249E0;5,563312769E-1
8,689288625E1;-1,613360643E0;-9,638887405E0;-1,183848977E0
8,699288625E1;1,335195065E0;-1,264188004E1;2,554338276E-1
8,709288625E1;1,820339799E0;-1,271246815E1;-5,688936114E-1
8,719288625E1;-5,223531723E0;-1,399382496E1;3,116651475E-1
8,729288625E1;-8,835497499E-1;-4,686343193E0;1,409372568E0
8,739288625E1;-3,833301783E0;-1,480558991E0;1,231705427E0
8,749288625E1;6,400800705E0;-1,302891922E1;-4,239483356E0
8,759288625E1;4,587639332E0;-3,168097258E0;-1,974078715E-1
8,769288625E1;-1,663609982E0;-5,696712494E0;5,194818020E0
8,779288625E1;-2,392224550E0;-1,326820183E1;1,922633052E0
8,789288625E1;-1,051645517E0;-7,870592117E0;8,757730722E-1
8,799288625E1;-2,522035122E0;-8,434102058E0;-2,097907305E0
8,809288625E1;1,685743570E0;-1,225603771E1;2,033899277E-1
8,819288625E1;2,593819857E0;-1,184566879E1;-2,361716032E0
8,829288625E1;-4,658825874E0;-1,684008789E1;2,237887383E0
8,839288625E1;3,026920557E-1;-1,123190975E1;8,201399446E-1
8,849288625E1;-3,579662561E0;7,477571070E-2;2,285145521E0
8,859288625E1;-1,427318692E0;-8,139185905E0;-4,031308174E0
8,869288625E1;3,384647608E0;-5,420939922E0;-4,740779877E0
8,879288625E1;-3,590430260E0;-1,667139435E1;-2,614158630E0
8,889288625E1;-2,057229280E0;-1,439522076E1;4,320241451E0
8,899288625E1;1,492523074E0;-9,352945328E0;-8,781659007E-1
8,909288625E1;-2,560918331E0;-8,674580574E0;-1,597209096E0
8,919288625E1;8,727820516E-1;-1,067976570E1;1,173679471E0
8,929288625E1;2,760719061E0;-1,266580868E1;-1,400997639E0
8,939288625E1;-4,836492538E0;-1,790130424E1;1,130608693E-1
8,949288625E1;4,031906128E0;-1,072104168E1;1,019940615E0
8,959288625E1;-1,678565025E0;-2,270788670E0;2,279163599E0
8,969288625E1;5,855237007E0;-9,119645119E0;-1,124507046E1
8,979288625E1;5,988038778E-1;-1,356610775E1;-1,074078274E1
8,989288625E1;-4,896313190E0;-7,499105930E0;9,726824164E-1
8,999288625E1;8,159525394E-1;-1,263649654E1;2,155334949E0
9,009288625E1;5,826523304E-1;-1,017727280E1;-1,331007600E0
9,019288625E1;-1,852044702E0;-8,249854088E0;5,102694035E-1
9,029288625E1;-1,479960799E0;-1,154835987E1;6,592226624E-1
9,039288625E1;2,470589399E0;-1,269990635E1;-3,180659533E0
9,049288625E1;-1,138983607E0;-1,584646797E1;-2,847459018E-1
9,059288625E1;7,986045480E-1;-1,108175945E1;1,597209096E0
9,069288625E1;-8,039883971E-1;-5,748157978E0;1,369292736E0
9,079288625E1;-3,457628787E-1;-6,619743824E0;-4,461417675E0
9,089288625E1;4,948955536E0;-1,402134228E1;-4,284348965E0
9,099288625E1;-1,731805444E0;-1,666421509E1;-4,534398913E-1
9,109288625E1;-3,052643538E0;-6,524629116E0;3,349353552E0
9,119288625E1;-5,425725579E-1;-1,154776192E1;-2,586043119E0
9,129288625E1;9,218349457E-1;-7,344171047E0;2,050050735E0
9,139288625E1;-2,087737769E-1;-1,081496048E1;6,352944374E-1
9,149288625E1;3,699902058E0;-1,115474129E1;-8,255238086E-2
9,159288625E1;1,239482164E0;-1,356012630E1;-4,701896608E-1
9,169288625E1;-5,749354839E0;-1,857847404E1;3,510869026E0
9,179288625E1;1,780858278E0;-6,247660160E0;1,091725349E0
9,189288625E1;-2,507079840E0;5,306084156E-1;2,875574589E0
9,199288625E1;5,275575638E0;-1,911685753E1;-9,403793335E0
9,209288625E1;1,329213023E0;-6,166902065E0;-6,082555294E0
9,219288625E1;-3,941577196E0;-5,041677475E0;5,729015827E0
9,229288625E1;-4,133601189E-1;-1,029212856E1;-1,207179070E0
9,239288625E1;1,424925923E0;-8,277970314E0;1,500898004E0
9,249288625E1;-2,894717216E0;-9,461818695E0;-4,450051785E0
9,259288625E1;4,381856441E0;-1,106142044E1;1,584646821E0
9,269288625E1;2,129014015E0;-1,330349541E1;9,421738982E-1
9,279288625E1;-5,227120876E0;-1,688495255E1;1,914258122E0
9,289288625E1;2,921636343E0;-7,804191113E0;2,301895380E0
9,299288625E1;-2,251047850E0;-1,426122308E0;2,116451740E0
9,309288625E1;7,169494629E0;-1,814058685E1;-9,914062500E0
9,319288625E1;3,702893019E0;-9,487542152E0;-6,576074600E0
9,329288625E1;-5,572285652E0;-6,269793510E0;3,120240688E0
9,339288625E1;-2,548356056E-1;-1,159083271E1;4,569094658E0
9,349288625E1;8,135597110E-1;-7,788637638E0;1,492523074E0
9,359288625E1;-1,415952802E0;-7,247261524E0;1,077966571E0
9,369288625E1;3,387040377E0;-1,095135117E1;1,126421213E0
9,379288625E1;1,760519266E0;-1,309113312E1;-1,497906923E0
9,389288625E1;-5,551946640E0;-1,630110359E1;2,104487419E0
9,399288625E1;-4,840680122E0;-1,374736404E1;-8,835497499E-1
9,409288625E1;-1,977069736E0;-1,184447169E0;2,524427891E0
9,419288625E1;-3,824927092E0;-2,108076811E0;9,523434043E-1
9,429288625E1;3,819543123E0;-8,469395638E0;-6,478567123E0
9,439288625E1;5,234299302E-1;-1,466082478E1;8,177471161E-1
9,449288625E1;-1,550549030E0;-1,078445148E1;4,920839787E0
9,459288625E1;-5,150550604E-1;-1,338066387E1;3,840480447E-1
9,469288625E1;-1,809572101E0;-7,493124008E0;1,814955950E0
9,479288625E1;4,039084435E0;-1,083111191E1;2,318047047E0
9,489288625E1;9,290133715E-1;-1,208854008E1;-1,896311998E0
9,499288625E1;-5,789434433E0;-1,744068527E1;1,886740685E0
9,509288625E1;-3,564707518E0;-1,367139244E1;-2,651247501E0
9,519288625E1;-2,761915445E0;-6,382854581E-1;2,266601324E0
9,529288625E1;-3,204587698E0;-1,719841242E0;4,450650215E-1
9,539288625E1;3,060420275E0;-8,477770805E0;-5,422734261E0
9,549288625E1;-4,648058116E-1;-1,279262829E1;-1,846660852E0
9,559288625E1;-1,068993568E0;-9,915857315E0;4,288536549E0
9,569288625E1;-1,828714728E0;-1,257368469E1;-1,477568030E0
9,579288625E1;-1,176072359E0;-7,346563816E0;1,187438250E0
9,589288625E1;-1,264008522E0;-1,042732334E1;-2,483151674E0
9,599288625E1;6,502495408E-1;-1,216750336E1;-7,052844763E-1
9,609288625E1;2,516651154E0;-1,305942822E1;-7,417750359E-2
9,619288625E1;-5,950950146E0;-1,428275871E1;-5,515456200E-1
9,629288625E1;3,439682484E0;-8,939585686E0;2,343769789E0
9,639288625E1;-4,328616142E0;-1,622333765E0;1,509871125E0
9,649288625E1;5,840879917E0;-1,336989689E1;-7,131209850E0
9,659288625E1;-3,864408433E-1;-1,264367485E1;-4,067798555E-1
9,669288625E1;-5,561518192E0;-8,882756233E0;1,746760488E0
9,679288625E1;-8,297112584E-1;-1,380897903E1;-6,915257573E-1
9,689288625E1;1,227517962E0;-8,197810173E0;3,583251834E-1
9,699288625E1;-1,861017823E0;-1,002293587E1;-3,408575773E0
9,709288625E1;3,638885021E0;-1,038066292E1;9,320043921E-1
9,719288625E1;2,094317913E0;-1,269512081E1;-3,565305769E-1
9,729288625E1;-4,773082733E0;-1,461715508E1;-7,130611539E-1
9,739288625E1;3,615555048E0;-9,658030510E0;2,468196630E0
9,749288625E1;-4,018745422E0;-1,281356573E0;1,281954765E0
9,759288625E1;5,548955917E0;-1,551506233E1;-7,943572998E0
9,769288625E1;2,082952023E0;-1,311087322E1;-1,229312658E0
9,779288625E1;-5,758327484E0;-8,112266541E0;1,950150490E0
9,789288625E1;-5,587241054E-1;-1,307378483E1;-1,235892892E0
9,799288625E1;1,613360643E0;-8,640482903E0;7,914260626E-1
9,809288625E1;-3,452843189E0;-9,111269951E0;-4,254438877E0
9,819288625E1;2,599801779E0;-1,135753250E1;1,868794441E0
9,829288625E1;3,346960783E0;-1,184387398E1;-3,798605800E-1
9,839288625E1;-4,194019794E0;-1,595115376E1;-1,788634956E-1
9,849288625E1;2,016551256E0;-9,294919968E0;2,797807932E0
9,859288625E1;-1,366301775E0;-3,177668571E0;9,912267923E-1
9,869288625E1;2,153540373E0;-1,092802143E1;-7,076773167E0
9,879288625E1;5,669195175E0;-1,332203960E1;-5,414359570E0
9,889288625E1;-3,368496180E0;-1,394237900E1;-1,394417405E0
9,899288625E1;-2,278565407E0;-7,110272408E0;4,739583492E0
9,909288625E1;1,238285661E0;-1,000080204E1;-9,296116233E-1
9,919288625E1;-1,286142170E-1;-7,130611420E0;2,104487419E0
9,929288625E1;-6,759724021E-2;-9,960722923E0;6,975077987E-1
9,939288625E1;3,541975737E0;-1,126062298E1;1,173679471E0
9,949288625E1;-1,264606714E0;-1,381376553E1;-2,853440940E-1
9,959288625E1;-5,983851433E0;-1,681675720E1;8,584251404E-1
9,969288625E1;5,982056856E-1;-5,867201328E0;1,133599758E0
9,979288625E1;-2,152942181E0;-5,514857769E0;-1,972882271E0
9,989288625E1;7,970492363E0;-1,750828362E1;-7,799405575E0
9,999288625E1;-2,344966173E0;-1,454058456E1;9,870393574E-2
1,000928862E2;-2,955136061E0;-6,498308182E0;4,060021877E0
1,001928862E2;1,573280841E-1;-1,075753212E1;-1,298106313E0
1,002928862E2;3,822534084E-1;-6,558726788E0;2,168495417E0
1,003928862E2;-5,389832854E-1;-1,003848934E1;1,108475089E0
1,004928862E2;2,746362209E0;-1,121157074E1;1,654038668E0
1,005928862E2;3,385843933E-1;-1,268794250E1;-2,715853751E-1
1,006928862E2;-6,449255466E0;-1,603011703E1;2,827120066E0
1,007928862E2;1,379462242E0;-6,889534473E0;8,554341197E-1
1,008928862E2;-2,706880569E0;-2,194218397E0;2,207977057E0
1,009928862E2;8,808578491E0;-1,796172333E1;-8,203194618E0
1,010928862E2;3,413959742E0;-8,785248756E0;-6,372086525E0
1,011928862E2;-6,404987812E0;-8,424530029E0;1,536790371E0
1,012928862E2;-9,457631707E-1;-1,094417286E1;4,869394302E0
1,013928862E2;1,637288928E0;-8,257631302E0;8,542376757E-1
1,014928862E2;-1,021137118E0;-7,166503906E0;2,054238319E0
1,015928862E2;4,150949001E0;-1,114337540E1;2,105684042E0
1,016928862E2;1,569691658E0;-1,243968678E1;1,094716340E-1
1,017928862E2;-5,560919762E0;-1,647996712E1;1,328016520E0
1,018928862E2;-5,905486107E0;-1,456152248E1;-2,178664923E0
1,019928862E2;-2,178066730E0;-3,114856958E0;1,650449395E0
1,020928862E2;-3,510869026E0;-1,287338614E0;1,296311617E0
1,021928862E2;4,598406792E0;-1,179063320E1;-5,977271080E0
1,022928862E2;-5,768496990E0;-7,582256794E0;-1,118046403E0
1,023928862E2;-9,044869542E-1;-9,186046600E0;3,792623997E0
1,024928862E2;8,171489239E-1;-9,619745255E0;-3,008974493E-1
1,025928862E2;-4,887340367E-1;-6,926024914E0;1,686341763E0
1,026928862E2;-3,768695518E-2;-1,089033413E1;2,255235314E-1
1,027928862E2;3,195614576E0;-1,147956657E1;1,805982947E0
1,028928862E2;-1,301695466E0;-1,357687569E1;-1,273579836E0
1,029928862E2;-6,750751019E0;-1,582852173E1;1,115055323E0
1,030928862E2;4,677968323E-1;-6,163911343E0;6,412764788E-1
1,031928862E2;-3,071187973E0;-6,699903607E-1;2,117049932E0
1,032928862E2;7,052844524E0;-1,617607880E1;-7,073781967E0
1,033928862E2;2,695514679E0;-6,714260101E0;-6,692724705E0
1,034928862E2;-4,355535507E0;-7,861020565E0;1,324427366E0
1,035928862E2;-9,912267923E-1;-1,015035343E1;4,183252335E0
1,036928862E2;1,119242787E0;-8,320442200E0;3,672982752E-1
1,037928862E2;-4,642075896E-1;-7,561319351E0;1,834098577E0
1,038928862E2;1,872383654E-1;-1,071266651E1;1,584646821E0
1,039928862E2;2,152343988E0;-1,240738392E1;8,799605370E-1
1,040928862E2;-4,371686935E0;-1,542712593E1;1,263410330E0
1,041928862E2;-5,845665932E0;-1,463031578E1;-5,688936114E-1
1,042928862E2;-1,820339799E0;-4,052843571E0;1,633699656E0
1,043928862E2;-3,519243956E0;-7,004988194E-1;1,393819213E0
1,044928862E2;4,715655327E0;-1,189591789E1;-5,538187981E0
1,045928862E2;7,172485590E-1;-1,212263775E1;-3,887738705E0
1,046928862E2;-1,074975610E0;-9,037691116E0;3,501297712E0
1,047928862E2;7,657032609E-1;-9,095717430E0;-4,360919297E-1
1,048928862E2;-2,458625287E-1;-7,385447025E0;1,226321578E0
1,049928862E2;1,680957973E-1;-1,154357433E1;-2,051845491E-1
1,050928862E2;3,019144058E0;-1,177747345E1;1,635494232E0
1,051928862E2;-1,837089539E0;-1,469611835E1;-7,579265833E-1
1,052928862E2;-6,611369133E0;-1,614856148E1;6,640082598E-2
1,053928862E2;-1,764706671E-1;-5,659025669E0;1,225125194E0
1,054928862E2;-3,223132133E0;-5,670989752E-1;2,295913219E0
1,055928862E2;6,574280262E0;-1,563589954E1;-6,870391846E0
1,056928862E2;1,305882931E0;-7,064210415E0;-6,019743443E0
1,057928862E2;-3,051447153E0;-6,500700951E0;5,180460930E0
1,058928862E2;-1,113858938E0;-1,386820221E1;5,106283665E0
1,059928862E2;7,232306600E-1;-7,202994347E0;1,835893154E0
1,060928862E2;-1,438086390E0;-8,169694901E0;1,043868899E0
1,061928862E2;3,428316593E0;-1,114098263E1;1,359721422E0
1,062928862E2;1,501496136E-1;-1,191266727E1;-2,882753134E0
1,063928862E2;-5,980261803E0;-1,736770439E1;1,126421213E0
1,064928862E2;-2,556730986E0;-1,215015507E1;-9,553344250E-1
1,065928862E2;-2,974278450E0;-7,519445419E-1;2,453839540E0
1,066928862E2;-2,055434704E0;-3,581457376E0;-7,896314859E-1
1,067928862E2;1,757528186E0;-6,667600155E0;-6,967899323E0
1,068928862E2;-1,060618639E0;-1,450110340E1;-1,577468276E0
1,069928862E2;-9,056833982E-1;-1,196052361E1;5,175076962E0
1,070928862E2;1,449452281E0;-7,911269665E0;5,186443329E-1
1,071928862E2;-1,186840057E0;-7,464410305E0;2,111067772E0
1,072928862E2;3,771088600E0;-1,102732277E1;2,215753794E0
1,073928862E2;1,424327731E0;-1,240798187E1;-5,012963414E-1
1,074928862E2;-5,242076397E0;-1,611805344E1;2,284547329E0
1,075928862E2;-5,362315655E0;-1,439282799E1;-2,075175524E0
1,076928862E2;-2,224726915E0;-1,965105653E0;2,298306227E0
1,077928862E2;-3,372085333E0;-1,597209096E0;6,293123364E-1
1,078928862E2;4,543970108E0;-9,835697174E0;-6,530611038E0
1,079928862E2;5,000999570E-1;-1,075155067E1;6,819544733E-2
1,080928862E2;-2,148156643E0;-9,014361382E0;4,533202648E0
1,081928862E2;-7,663014531E-1;-1,325922871E1;2,401197433E0
1,082928862E2;-2,398804724E-1;-7,019345284E0;2,012363911E0
1,083928862E2;-1,846660852E0;-8,480761528E0;-1,530210137E0
1,084928862E2;2,237887383E0;-1,215374470E1;6,095715761E-1
1,085928862E2;1,677966833E0;-1,253181076E1;-1,529611826E0
1,086928862E2;-5,492125988E0;-1,583809280E1;-2,303091735E-1
1,087928862E2;3,261417150E0;-9,970891953E0;3,139981508E0
1,088928862E2;-3,851846218E0;-7,375875711E-1;1,578664780E0
1,089928862E2;6,131607890E-1;-9,455837250E0;-6,943971157E0
1,090928862E2;2,728415966E0;-9,734601021E0;-6,206383705E0
1,091928862E2;-4,492524624E0;-1,094118118E1;-2,947359324E0
1,092928862E2;7,190431952E-1;-1,358106327E1;3,291925669E0
1,093928862E2;9,696913958E-1;-9,984650612E0;-3,487538993E-1
1,094928862E2;-1,567298889E0;-8,477172852E0;-2,973082066E-1
1,095928862E2;3,614358664E0;-1,142393398E1;9,607182741E-1
1,096928862E2;2,450250387E0;-1,196531010E1;-2,885744095E0
1,097928862E2;-6,681957245E0;-1,701476288E1;2,931207716E-1
1,098928862E2;1,740778536E-1;-1,059362411E1;1,816750646E0
1,099928862E2;-3,393022537E0;-7,537391186E-1;2,643470764E0
1,100928862E2;-1,207777262E0;-7,165905476E0;-3,296711445E0
1,101928862E2;2,759522676E0;-5,526822090E0;-5,163113117E0
1,102928862E2;-2,421536446E0;-1,431446362E1;-1,152144074E0
1,103928862E2;-5,024927482E-2;-1,268674564E1;4,770689964E0
1,104928862E2;3,948157281E-2;-1,075753212E1;-7,645068169E-1
1,105928862E2;-1,044467092E0;-7,988438606E0;9,326026440E-1
1,106928862E2;-8,350951076E-1;-1,003430176E1;-6,011967063E-1
1,107928862E2;2,106880426E0;-1,245942783E1;-1,962114573E0
1,108928862E2;2,380858511E-1;-1,340698528E1;-4,725824594E-1
1,109928862E2;-2,369492531E0;-1,173978615E1;-9,786644578E-1
1,110928862E2;1,616949916E0;-6,440282345E0;1,386042476E0
1,111928862E2;-1,891526341E0;-4,902295589E0;-1,327418327E0
1,112928862E2;7,113263607E0;-1,750768471E1;-8,514261246E0
1,113928862E2;-2,836092949E0;-1,506341648E1;-4,432703853E-1
1,114928862E2;-3,094517946E0;-7,214958668E0;5,161916733E0
1,115928862E2;1,680957973E-1;-1,134975624E1;-1,902294040E0
1,116928862E2;1,251446247E0;-6,731009960E0;1,086341500E0
1,117928862E2;-1,135992527E0;-9,809376717E0;-2,730210543E0
1,118928862E2;3,698705673E0;-1,111107159E1;1,499701619E0
1,119928862E2;5,724828243E-1;-1,372822189E1;6,580262445E-3
1,120928862E2;-2,496312141E0;-1,237508011E1;-1,737787485E0
1,121928862E2;9,170492887E-1;-5,797211170E0;9,690931439E-1
1,122928862E2;-3,194418192E0;-4,234099865E0;-5,078766346E-1
1,123928862E2;7,392625332E0;-1,883330917E1;-8,830113411E0
1,124928862E2;-3,327818155E0;-1,608335686E1;-2,512463629E-1
1,125928862E2;-3,809971809E0;-6,848258495E0;4,143770695E0
1,126928862E2;2,129612118E-1;-1,102134132E1;-2,295315027E0
1,127928862E2;7,944171429E-1;-7,448258877E0;8,644071817E-1
1,128928862E2;-1,792224169E0;-1,048594666E1;-1,914856315E0
1,129928862E2;3,531806231E0;-1,082871914E1;1,792224169E0
1,130928862E2;2,673979402E-1;-1,345663643E1;9,212367237E-2
1,131928862E2;-5,642873764E0;-1,618325806E1;2,462214470E0
1,132928862E2;1,741376638E0;-7,027719975E0;1,239482164E0
1,133928862E2;-2,418545485E0;-9,206385016E-1;2,445464849E0
1,134928862E2;8,264809608E0;-1,965285110E1;-8,257631302E0
1,135928862E2;2,849851847E0;-6,585646152E0;-6,119045734E0
1,136928862E2;-4,294518471E0;-6,726224422E0;4,742574692E0
1,137928862E2;-1,329213023E0;-1,258923817E1;5,056034088E0
1,138928862E2;1,122233868E0;-6,965506554E0;2,829512656E-1
1,139928862E2;-1,222732425E0;-7,392625332E0;1,532602906E0
1,140928862E2;4,116851330E0;-1,112483025E1;1,291526079E0
1,141928862E2;1,335793257E0;-1,286441231E1;-2,361716032E0
1,142928862E2;-5,324628353E0;-1,651167297E1;3,304488182E0
1,143928862E2;-4,191029072E0;-1,302772331E1;-1,323829174E0
1,144928862E2;-2,705085993E0;-6,329016089E-1;2,633899450E0
1,145928862E2;6,785446644E0;-1,924008942E1;-8,010572433E0
1,146928862E2;3,205784082E0;-6,034100533E0;-7,144968510E0
1,147928862E2;-4,047459602E0;-6,477370739E0;5,159523964E0
1,148928862E2;-1,305882931E0;-1,199462128E1;4,630710125E0
1,149928862E2;1,322034478E0;-7,439285755E0;9,936196208E-1
1,150928862E2;-1,963310957E0;-6,837490559E0;3,170489892E-2
1,151928862E2;4,012763500E0;-1,122473145E1;1,936989903E0
1,152928862E2;5,545366406E-1;-1,239482117E1;-2,755335331E0
1,153928862E2;-6,815357208E0;-1,723071671E1;1,686341763E0
1,154928862E2;-2,703291416E0;-1,207956696E1;-1,253839016E0
1,155928862E2;-3,334996462E0;7,674978375E-1;2,789433002E0
1,156928862E2;-2,505285263E0;-3,430111170E0;-4,139583111E-1
1,157928862E2;2,016551256E0;-7,294519901E0;-6,372086525E0
1,158928862E2;-1,416550994E0;-1,327956772E1;8,434699774E-1
1,159928862E2;6,705885530E-1;-1,443589878E1;5,874977589E0
1,160928862E2;5,964110494E-1;-1,109073257E1;-9,355936646E-1
1,161928862E2;-1,461416483E0;-7,368697166E0;1,331007600E0
1,162928862E2;-8,309076428E-1;-1,053081226E1;-6,041877344E-2
1,163928862E2;4,719842672E-1;-1,255155087E1;-3,445066452E0
1,164928862E2;3,463610709E-1;-1,255095291E1;-5,682953820E-2
1,165928862E2;-2,755933523E0;-1,209870911E1;-1,706082582E0
1,166928862E2;7,052844763E-1;-6,488736629E0;1,298106313E0
1,167928862E2;-2,637488842E0;-3,294916868E0;-6,592226624E-1
1,168928862E2;6,069394588E0;-1,932323837E1;-1,080060291E1
1,169928862E2;9,409775138E-1;-1,308515072E1;-1,106680483E-1
1,170928862E2;-2,576471806E0;-1,144786167E1;4,016951084E0
1,171928862E2;-1,657029688E-1;-1,236371422E1;-8,967102766E-1
1,172928862E2;-1,521835208E0;-7,533802032E0;1,528415442E0
1,173928862E2;-1,663609982E0;-9,834501266E0;-1,579262912E-1
1,174928862E2;1,147956610E0;-1,242114258E1;-3,384647608E0
1,175928862E2;-1,093519926E0;-1,340399456E1;-8,255238086E-2
1,176928862E2;-2,117648125E0;-1,138205910E1;-9,607182741E-1
1,177928862E2;-6,023930907E-1;-5,364109993E0;1,000798106E0
1,178928862E2;-1,599601984E0;-4,753940582E0;-2,126621008E0
1,179928862E2;8,526225090E0;-1,795514297E1;-8,440681458E0
1,180928862E2;-1,719243050E0;-1,455314732E1;-4,097708762E-1
1,181928862E2;-3,848257065E0;-6,506682873E0;5,410770416E0
1,182928862E2;6,346961856E-1;-1,020718288E1;-3,176472187E-1
1,183928862E2;1,346560955E0;-7,703094482E0;1,196411371E0
1,184928862E2;-1,789233088E0;-1,028195858E1;-1,721635938E0
1,185928862E2;3,966103554E0;-1,094477081E1;1,502692580E0
1,186928862E2;7,974081635E-1;-1,292542934E1;7,878368497E-1
1,187928862E2;-5,718846321E0;-1,749033737E1;1,635494232E0
1,188928862E2;9,194421172E-1;-5,989234924E0;9,086744189E-1
1,189928862E2;-2,418545485E0;-2,907279432E-1;1,891526341E0
1,190928862E2;8,469395638E0;-1,961875343E1;-1,027717304E1
1,191928862E2;2,441277266E0;-7,606783390E0;-5,927619934E0
1,192928862E2;-4,701298237E0;-6,619743824E0;4,836492538E0
1,193928862E2;-5,928218365E-1;-1,294397449E1;4,971687317E0
1,194928862E2;1,038485050E0;-7,607381344E0;1,077368379E0
1,195928862E2;-1,244267821E0;-1,011027431E1;-2,563311338E0
1,196928862E2;2,371287346E0;-1,093938732E1;1,963909149E0
1,197928862E2;2,129612207E0;-1,283689499E1;-9,960124493E-1
1,198928862E2;-4,630710125E0;-1,663071632E1;2,746960402E0
1,199928862E2;2,690130949E0;-8,216354370E0;2,270788670E0
1,200928862E2;-2,807379246E0;-1,747358680E0;2,229512453E0
1,201928862E2;8,477172852E0;-1,740898132E1;-8,657830238E0
1,202928862E2;3,217748165E0;-7,685148239E0;-4,752744198E0
1,203928862E2;-4,418945312E0;-8,691329956E0;1,207179070E0
1,204928862E2;-1,138983607E0;-1,012223816E1;4,951348305E0
1,205928862E2;-5,982056609E-4;-7,772486210E0;1,054038405E0
1,206928862E2;-1,701296926E0;-7,254439831E0;1,109073281E0
1,207928862E2;3,650250912E0;-1,068215847E1;1,019940615E0
1,208928862E2;1,470987678E0;-1,195334530E1;-1,383051515E0
1,209928862E2;-5,324628353E0;-1,625145340E1;2,569891453E0
1,210928862E2;-5,877370834E0;-1,513639832E1;-1,641476393E0
1,211928862E2;-1,871785522E0;-2,288136721E0;1,761715651E0
1,212928862E2;-3,049652576E0;-1,749153376E0;3,104687333E-1
1,213928862E2;2,848655462E0;-7,848458290E0;-5,850451469E0
1,214928862E2;-8,075776696E-1;-1,501675701E1;1,308275819E0
1,215928862E2;-1,077368379E0;-1,160877895E1;5,150550842E0
1,216928862E2;1,286142170E-1;-1,202991581E1;-1,886142492E0
1,217928862E2;-8,835497499E-1;-6,800402164E0;2,000399828E0
1,218928862E2;-2,121835470E0;-1,023290634E1;-4,337589264E0
1,219928862E2;1,749153376E0;-1,260718441E1;-1,865803480E0
1,220928862E2;-6,313462734E0;-1,727797318E1;3,383451223E0
1,221928862E2;-3,687937975E0;-1,280519009E1;-1,951346874E0
1,222928862E2;-2,861815929E0;-1,319043517E0;2,441875458E0
1,223928862E2;-2,459223509E0;-2,938386202E0;-5,042873621E-1
1,224928862E2;2,307877541E0;-7,481160164E0;-5,274977684E0
1,225928862E2;-1,423131227E0;-1,390768337E1;1,530808330E0
1,226928862E2;-1,517049551E0;-1,277228928E1;4,808975220E0
1,227928862E2;8,997012973E-1;-1,077906799E1;-2,120040894E0
1,228928862E2;-1,565504193E0;-7,756334782E0;1,186241865E0
1,229928862E2;-1,271187067E0;-1,048534870E1;-1,389631748E0
1,230928862E2;1,119840980E0;-1,278604794E1;-2,770888567E0
1,231928862E2;-1,685145378E0;-1,325922871E1;-2,961117923E-1
1,232928862E2;1,130608693E-1;-1,107458115E1;2,374876440E-1
1,233928862E2;-1,046859920E-1;-5,641079426E0;7,351947427E-1
1,234928862E2;-6,975077987E-1;-5,616552830E0;-2,366501570E0
1,235928862E2;6,753143787E0;-1,650987816E1;-7,472187042E0
1,236928862E2;-3,305086374E0;-9,395418167E0;4,067798331E-2
1,237928862E2;-2,842673302E0;-8,187042236E0;5,014159679E0
1,238928862E2;1,426720500E0;-9,912267685E0;-1,477568001E-1
1,239928862E2;-1,668993831E-1;-6,932007313E0;1,678565025E0
1,240928862E2;-4,731806815E-1;-1,030169964E1;-1,651047617E-1
1,241928862E2;4,033700943E0;-1,147777176E1;6,520441771E-1
1,242928862E2;-2,662015259E-1;-1,333400440E1;4,055834413E-1
1,243928862E2;-6,080162525E0;-1,716252136E1;8,243274093E-1
1,244928862E2;1,214357466E-1;-6,394220352E0;1,109073281E0
1,245928862E2;-2,031506538E0;-5,274379253E0;-1,847259045E0
1,246928862E2;6,823133945E0;-1,631306839E1;-8,047062874E0
1,247928862E2;-1,423729509E-1;-1,243131161E1;1,610369682E0
1,248928862E2;-3,290131092E0;-7,486543655E0;4,325026989E0
1,249928862E2;9,092726111E-1;-1,043210888E1;-3,433700502E-1
1,250928862E2;2,811566591E-1;-6,896114826E0;1,750947952E0
1,251928862E2;9,846464992E-1;-9,537193298E0;3,631108403E-1
1,252928862E2;3,473780155E0;-1,193779182E1;4,588237405E-1
1,253928862E2;-1,120439172E0;-1,364866066E1;-7,274180651E-1
1,254928862E2;-6,876972198E0;-1,756271935E1;1,824527264E0
1,255928862E2;-3,702892959E-1;-5,885745525E0;9,523434043E-1
1,256928862E2;-2,993421078E0;1,986042857E-1;2,525026083E0
1,257928862E2;6,307480335E0;-1,747059631E1;-8,160721779E0
1,258928862E2;2,120639086E0;-6,252445698E0;-7,055835724E0
1,259928862E2;-3,625724554E0;-7,124629498E0;4,698307037E0
1,260928862E2;-1,341177106E0;-1,366660690E1;5,751149178E0
1,261928862E2;3,140579760E-1;-5,991627693E0;1,789831281E0
1,262928862E2;-1,973480463E0;-8,903693199E0;-7,776673883E-2
1,263928862E2;3,192025423E0;-1,095912743E1;2,344966233E-1
1,264928862E2;2,083550215E0;-1,231047440E1;-2,296511650E0
1,265928862E2;-6,960123062E0;-1,823390770E1;7,298108935E-1
1,266928862E2;2,134995937E0;-1,220459175E1;1,989632010E0
1,267928862E2;-3,061018467E0;2,506481707E-1;2,230110645E0
1,268928862E2;-1,587039590E0;-5,615954876E0;-1,716850281E0
1,269928862E2;9,302098155E-1;-9,189635277E0;-7,389634609E0
1,270928862E2;-3,842274904E0;-7,080362320E0;4,911866665E0
1,271928862E2;-7,334001660E-1;-1,357089329E1;5,664409637E0
1,272928862E2;-6,520441920E-2;-7,298707485E0;1,957927108E0
1,273928862E2;-2,099701881E0;-8,307282448E0;2,895315289E-1
1,274928862E2;4,013959885E0;-1,123071289E1;1,369890928E0
1,275928862E2;1,251446247E0;-1,228893852E1;-2,773879766E0
1,276928862E2;-7,346563816E0;-1,677906990E1;1,256830096E0
1,277928862E2;-8,518448472E-1;-1,206879902E1;-2,835494876E-1
1,278928862E2;-3,236292601E0;-9,002995491E-1;2,468794823E0
1,279928862E2;-1,978864312E0;-3,972085476E0;-8,901300430E-1
1,280928862E2;2,191825628E0;-7,427919865E0;-6,308078766E0
1,281928862E2;4,331009090E-1;-1,117448139E1;8,578268886E-1
1,282928862E2;-5,682953596E-1;-1,174277687E1;5,229514122E0
1,283928862E2;4,564309120E-1;-1,193480110E1;-2,528615236E0
1,284928862E2;-1,195813060E0;-7,936992645E0;1,671386600E0
1,285928862E2;-1,791625977E0;-1,008275604E1;-3,533600807E0
1,286928862E2;1,484746456E0;-1,263470173E1;-4,749752879E-1
1,287928862E2;1,831705689E0;-1,274836063E1;1,256231871E-2
1,288928862E2;-4,359723091E0;-1,373300743E1;-2,359921217E0
1,289928862E2;2,480758905E0;-7,318448067E0;2,246860504E0
1,290928862E2;-3,758526087E0;-2,662613392E0;7,686942816E-1
1,291928862E2;7,989036560E0;-1,759023666E1;-9,857233047E0
1,292928862E2;6,329016089E-1;-1,239123249E1;-2,973082066E-1
1,293928862E2;-4,928018093E0;-9,683753014E0;0,000000000E0
1,294928862E2;4,163511395E-1;-1,330229950E1;2,620140910E-1
1,295928862E2;-8,111668825E-1;-7,184450150E0;2,117049932E0
1,296928862E2;-2,392822742E0;-9,558130264E0;-1,358525038E0
1,297928862E2;2,068595171E0;-1,144487095E1;3,661018610E-1
1,298928862E2;2,402393818E0;-1,173978615E1;-2,344367981E0
1,299928862E2;-6,044270039E0;-1,560000706E1;2,171486616E-1
1,300928862E2;2,365903378E0;-1,002353382E1;2,541775942E0
1,301928862E2;-3,708276987E0;-1,140778184E0;1,212562919E0
1,302928862E2;4,145565033E0;-1,209930801E1;-7,454240799E0
1,303928862E2;1,666002750E0;-1,026700401E1;-3,058027267E0
1,304928862E2;-5,356931686E0;-1,078744221E1;-1,584048629E0
1,305928862E2;9,218349457E-1;-1,396271801E1;2,963510752E0
1,306928862E2;1,847857237E0;-9,114261627E0;-7,531409264E-1
1,307928862E2;-2,384447813E0;-8,532207489E0;-1,184447169E0
1,308928862E2;3,906283081E-1;-1,055593681E1;6,346961856E-1
1,309928862E2;2,870190859E0;-1,162493038E1;-2,474178553E0
1,310928862E2;-3,233899832E0;-1,661217117E1;4,785645381E-2
1,311928862E2;2,468196630E0;-1,037647533E1;3,242274761E0
1,312928862E2;-7,914260626E-1;-4,516452789E0;1,397408366E0
1,313928862E2;1,536192179E0;-9,111868858E0;-5,578866005E0
1,314928862E2;4,260420799E0;-1,200658607E1;-5,063810825E0
1,315928862E2;-5,180460811E-1;-1,448554993E1;-1,544566989E0
1,316928862E2;-3,002992392E0;-7,140780926E0;4,583451748E0
1,317928862E2;1,156331539E0;-9,887143135E0;-1,092921734E0
1,318928862E2;2,907279432E-1;-7,708477974E0;1,378864050E0
1,319928862E2;-2,572284341E-1;-1,050748253E1;-1,048056364E0
1,320928862E2;1,269990563E0;-1,205324554E1;-2,630310297E0
1,321928862E2;4,307080805E-2;-1,378086376E1;-4,438686073E-1
1,322928862E2;1,363908947E-1;-1,158604717E1;-7,537391037E-2
1,323928862E2;-4,486542568E-2;-6,173482418E0;1,119242787E0
1,324928862E2;-2,000399828E0;-5,049454212E0;-1,123430252E0
1,325928862E2;8,011170387E0;-1,671984863E1;-7,088737011E0
1,326928862E2;1,202393398E-1;-1,405783272E1;-5,653043389E-1
1,327928862E2;-4,290330887E0;-6,875177860E0;3,315854073E0
1,328928862E2;4,043870270E-1;-1,136112213E1;-2,445464849E0
1,329928862E2;1,402194023E0;-7,597810268E0;1,543370605E0
1,330928862E2;-2,510669231E0;-9,844670296E0;-2,756531715E0
1,331928862E2;1,085743308E0;-1,105424213E1;7,369893789E-1
1,332928862E2;3,351148129E0;-1,248933792E1;-1,473978758E0
1,333928862E2;-4,663611412E0;-1,525603867E1;2,168495417E0
1,334928862E2;3,382254839E0;-9,960722923E0;2,417349100E0
1,335928862E2;-1,646860242E0;-4,092923164E0;1,931007862E0
1,336928862E2;2,490330219E0;-1,038126087E1;-6,254838467E0
1,337928862E2;5,645864964E0;-1,195753288E1;-5,189434052E0
1,338928862E2;-6,381059647E0;-7,323832035E0;-1,801795483E0
1,339928862E2;-2,892922640E0;-9,107681274E0;4,344767570E0
1,340928862E2;2,176870346E0;-8,991030693E0;5,036891699E-1
1,341928862E2;-1,051645517E0;-6,772286415E0;2,596212626E0
1,342928862E2;1,737189293E0;-1,104048347E1;6,885347366E-1
1,343928862E2;2,182254314E0;-1,138086224E1;5,359922647E-1
1,344928862E2;-3,139383316E0;-1,730429459E1;4,253242314E-1
1,345928862E2;2,496312141E0;-9,954740524E0;3,198007345E0
1,346928862E2;-1,092921734E0;-2,785245657E0;1,018744230E0
1,347928862E2;1,695913076E0;-9,950552940E0;-6,301498413E0
1,348928862E2;5,146363258E0;-1,290509033E1;-6,248856544E0
1,349928862E2;-3,088535786E0;-1,369232941E1;-2,231307179E-1
1,350928862E2;-3,351746321E0;-7,688737392E0;4,221537113E0
1,351928862E2;1,274178028E0;-9,621540070E0;-1,267597795E0
1,352928862E2;5,778666735E-1;-6,957729816E0;5,982056856E-1
1,353928862E2;1,035493970E0;-1,073240757E1;5,000999570E-1
1,354928862E2;2,449652195E0;-1,170030499E1;1,782054663E0
1,355928862E2;-3,499503136E0;-1,525304794E1;-1,040279627E0
1,356928862E2;-6,177670002E0;-1,541157246E1;8,853443861E-1
1,357928862E2;-4,019941986E-1;-5,472983360E0;7,082754970E-1
1,358928862E2;-3,206980467E0;-1,341775298E0;1,957927108E0
1,359928862E2;5,320441246E0;-1,403689575E1;-6,553342819E0
1,360928862E2;3,954139352E-1;-1,021256733E1;-6,772286415E0
1,361928862E2;-2,257628202E0;-8,742775917E0;4,552345276E0
1,362928862E2;1,035493970E0;-1,369651699E1;2,517847538E0
1,363928862E2;-3,397808075E-1;-7,130013466E0;1,321436286E0
1,364928862E2;-1,686939955E0;-8,385048866E0;1,770688742E-1
1,365928862E2;3,533002615E0;-1,143410301E1;8,608179688E-1
1,366928862E2;2,504088879E0;-1,177508068E1;-3,078964472E0
1,367928862E2;-7,130611420E0;-1,619103432E1;6,340979934E-1
1,368928862E2;1,207179070E0;-1,053021431E1;1,721635938E0
1,369928862E2;-3,028715372E0;1,280160099E-1;2,151745796E0
1,370928862E2;6,103492260E0;-1,480439377E1;-6,537191391E0
1,371928862E2;1,180858016E0;-1,086341476E1;-6,592824459E0
1,372928862E2;-2,892324448E0;-7,325626373E0;4,836492538E0
1,373928862E2;5,934200287E-1;-1,374915886E1;5,088935375E0
1,374928862E2;-9,272187948E-2;-6,454638958E0;2,769093990E0
1,375928862E2;-2,557329178E0;-9,198010445E0;-1,526022673E0
1,376928862E2;3,164507866E0;-1,148554897E1;1,225723386E0
1,377928862E2;3,326023519E-1;-1,273041439E1;-2,629712105E0
1,378928862E2;-6,288936138E0;-1,595593929E1;1,502692580E0
1,379928862E2;-1,118046403E0;-1,146401310E1;-3,589233849E-3
1,380928862E2;-2,824128866E0;-7,734799385E-1;2,170290232E0
1,381928862E2;-1,820339799E0;-5,298905849E0;-1,271785259E0
1,382928862E2;2,008774519E0;-6,178267956E0;-5,526822090E0
1,383928862E2;-5,653043389E-1;-1,399382496E1;1,713859200E0
1,384928862E2;-1,016351461E0;-1,154118156E1;4,295116425E0
1,385928862E2;3,236292601E-1;-1,181276703E1;-1,839482427E0
1,386928862E2;-1,317248821E0;-8,045866013E0;9,302098155E-1
1,387928862E2;-2,041675806E0;-9,906285286E0;-1,492523074E0
1,388928862E2;1,183250785E0;-1,312523079E1;-1,617548108E0
1,389928862E2;1,910070658E0;-1,177029419E1;-2,333002090E-1
1,390928862E2;-3,439682484E0;-1,291825104E1;-3,348755360E0
1,391928862E2;2,414956331E0;-8,082955360E0;1,407577872E0
1,392928862E2;-3,227917671E0;-2,750549555E0;4,815555513E-1
1,393928862E2;7,507481098E0;-1,541217041E1;-7,180860519E0
1,394928862E2;-1,076171994E0;-1,193300629E1;-1,229312658E0
1,395928862E2;-1,870589137E0;-9,627521515E0;4,444069862E0
1,396928862E2;-3,050848842E-2;-1,335254860E1;6,879364848E-1
1,397928862E2;-4,570291340E-1;-7,221538544E0;1,962712765E0
1,398928862E2;-1,808973908E0;-9,457033157E0;-1,098903775E0
1,399928862E2;2,632104874E0;-1,135035419E1;1,393221021E0
1,400928862E2;2,338385820E0;-1,232602787E1;-2,722434044E0
1,401928862E2;-6,698108673E0;-1,542054558E1;2,751746029E-2
1,402928862E2;3,008974552E0;-1,024546814E1;3,275176048E0
1,403928862E2;-3,805784464E0;-1,458425403E0;1,678565025E0
1,404928862E2;1,642074585E0;-9,760921478E0;-6,175277233E0
1,405928862E2;2,291127741E-1;-1,034297562E1;-2,873181820E0
1,406928862E2;-4,409972191E0;-1,156869888E1;9,631111473E-2
1,407928862E2;-1,417747438E-1;-1,387238884E1;1,667797327E0
1,408928862E2;2,056032896E0;-8,594420433E0;-6,981059909E-1
1,409928862E2;-1,838286042E0;-9,943972588E0;-1,789831281E0
1,410928862E2;1,350748420E0;-1,096451187E1;1,363908887E0
1,411928862E2;1,777269006E0;-1,225603771E1;-1,922034740E0
1,412928862E2;-3,214757204E0;-1,494138241E1;2,422732860E-1
1,413928862E2;2,928216696E0;-1,044646549E1;3,667000771E0
1,414928862E2;-5,814558864E-1;-4,604987144E0;1,777867198E0
1,415928862E2;3,768695518E-2;-7,602595806E0;-3,744169235E0
1,416928862E2;5,804389477E0;-1,477268887E1;-6,381059647E0
1,417928862E2;-2,160718918E0;-1,289611721E1;-6,723831892E-1
1,418928862E2;-3,565305710E0;-7,886145115E0;4,515854359E0
1,419928862E2;1,767099500E0;-9,798010826E0;-1,179661512E0
1,420928862E2;-2,012363911E0;-8,627920151E0;1,555334777E-1
1,421928862E2;-1,082752272E-1;-1,099501991E1;-1,770688742E-1
1,422928862E2;8,751748800E-1;-1,120140076E1;-4,068396568E0
1,423928862E2;-5,330012441E-1;-1,455135250E1;-4,719842672E-1
1,424928862E2;7,561319470E-1;-1,209392357E1;1,130010486E0
1,425928862E2;-1,097707391E0;-4,887340069E0;1,322632670E0
1,426928862E2;-8,709874153E-1;-5,303691387E0;-2,602194548E0
1,427928862E2;5,744568825E0;-1,711167336E1;-8,032705307E0
1,428928862E2;-4,737788737E-1;-1,387418365E1;-3,900300860E-1
1,429928862E2;-4,345963955E0;-5,858228207E0;5,056632519E0
1,430928862E2;7,465606928E-1;-1,101894855E1;-1,951945066E0
1,431928862E2;1,073779106E0;-7,353144169E0;1,360319614E0
1,432928862E2;-2,347358942E0;-1,003549862E1;-2,776870728E0
1,433928862E2;2,521436930E0;-1,152861977E1;1,480558991E0
1,434928862E2;1,904686809E0;-1,276032448E1;-1,063011408E0
1,435928862E2;-5,442475319E0;-1,527278900E1;1,749751568E0
1,436928862E2;3,500699520E0;-8,884550095E0;2,390429735E0
1,437928862E2;-1,924427629E0;-3,360121250E0;1,896311998E0
1,438928862E2;5,699703693E0;-1,301875019E1;-7,214360237E0
1,439928862E2;3,064009428E0;-1,020419216E1;-5,871986866E0
1,440928862E2;-4,508676052E0;-1,007258701E1;-2,304288149E0
1,441928862E2;-2,484946251E0;-8,257032394E0;4,211368084E0
1,442928862E2;1,549950838E0;-8,737391472E0;-1,004387259E0
1,443928862E2;-3,373879790E-1;-7,162914753E0;1,905883193E0
1,444928862E2;4,049852192E-1;-1,049192905E1;-3,589234054E-1
1,445928862E2;3,023331404E0;-1,276810169E1;-2,220539331E0
1,446928862E2;-4,301696777E0;-1,642433548E1;2,153540403E-1
1,447928862E2;3,275176048E0;-1,028076267E1;2,762513638E0
1,448928862E2;-1,984248161E0;-3,373879910E0;1,822134495E0
1,449928862E2;4,677370071E0;-1,159681511E1;-6,970292568E0
1,450928862E2;4,352544308E0;-1,125284672E1;-4,988437176E0
1,451928862E2;-4,792225361E0;-8,801400185E0;-3,284149170E-1
1,452928862E2;-2,024926186E0;-9,175876617E0;3,711866140E0
1,453928862E2;1,976471543E0;-8,355138779E0;5,820540786E-1
1,454928862E2;-1,441675663E0;-9,242277145E0;6,640082598E-1
1,455928862E2;4,743770957E-1;-1,176251793E1;1,515254974E0
1,456928862E2;2,620738983E0;-1,208554935E1;-4,255635262E0
1,457928862E2;-6,160321712E0;-1,743769455E1;4,474578381E0
1,458928862E2;5,044668198E0;-9,282955170E0;4,157529354E0
1,459928862E2;-2,996412039E0;-1,728216171E0;2,478366137E0
1,460928862E2;7,585247755E-1;-7,152146816E0;-3,696911097E0
1,461928862E2;3,360121250E0;-6,949953556E0;-5,542375565E0
1,462928862E2;-4,776672363E0;-4,805984497E0;4,400400639E0
1,463928862E2;3,583251834E-1;-1,173978615E1;2,638087034E0
1,464928862E2;1,433898926E0;-9,457033157E0;-5,647061467E-1
1,465928862E2;-1,024128079E0;-7,435696602E0;1,153340459E0
1,466928862E2;-1,505085468E0;-1,106680489E1;-1,125823021E0
1,467928862E2;2,764308453E0;-1,240798187E1;1,402792215E0
1,468928862E2;-3,969692707E0;-1,396511078E1;-6,604190469E-1
1,469928862E2;-4,556532383E0;-1,386221981E1;-1,725225091E0
1,470928862E2;-1,251446247E0;-5,400600910E0;-8,560323119E-1
1,471928862E2;-3,834498405E0;-1,395015597E0;7,543373108E-1
1,472928862E2;3,522234917E0;-1,819083595E1;-7,694121361E0
1,473928862E2;3,308077157E-1;-1,309771252E1;-1,575673699E0
1,474928862E2;-3,101696253E0;-3,665804386E0;7,733004570E0
1,475928862E2;-1,085145116E0;-1,474876022E1;2,279761791E0
1,476928862E2;5,264210105E-1;-6,285944939E0;4,480560422E-1
1,477928862E2;-2,814557552E0;-8,946166039E0;-7,968099117E-1
1,478928862E2;5,867201328E0;-1,132044411E1;2,739781857E0
1,479928862E2;2,630908489E0;-1,198684502E1;-2,803191662E0
1,480928862E2;-9,218947411E0;-1,942553329E1;4,111467361E0
1,481928862E2;4,226323128E0;-7,220342159E0;2,751746029E-2
1,482928862E2;-3,246462107E0;-2,865405083E-1;1,155135155E0
1,483928862E2;1,035374355E1;-1,665883064E1;-9,013762474E0
1,484928862E2;-6,999006122E-2;-4,515256405E0;-4,240081787E0
1,485928862E2;-7,746165276E0;-2,642274380E0;3,509672642E0
1,486928862E2;3,948157430E-1;-1,825723648E1;6,394818306E0
1,487928862E2;9,936196208E-1;-1,466860104E1;-5,149952412E0
1,488928862E2;5,150550604E-1;-6,981060028E0;1,759921074E0
1,489928862E2;-1,226321608E-1;-1,091067314E1;-2,724826813E0
1,490928862E2;1,136590719E0;-1,219322586E1;1,465603858E-1
1,491928862E2;2,670988321E0;-1,250967693E1;-7,968099117E-1
1,492928862E2;-5,405984402E0;-1,410389519E1;-1,655235052E0
1,493928862E2;2,218744755E0;-9,480961800E0;2,078764677E0
1,494928862E2;-3,474976778E0;-2,199003935E0;2,835494876E-1
1,495928862E2;5,612365723E0;-1,342014599E1;-7,880761147E0
1,496928862E2;8,057830334E-1;-1,207717419E1;-2,027917147E0
1,497928862E2;-5,732604980E0;-8,830712318E0;-1,183250785E0
1,498928862E2;2,404786795E-1;-1,387657642E1;-5,539384484E-1
1,499928862E2;2,318645239E0;-8,584849358E0;1,088734269E-1
1,500928862E2;-3,262015581E0;-9,427123070E0;-2,618346214E0
1,501928862E2;1,615155339E-1;-1,090289593E1;7,495517135E-1
1,502928862E2;1,969292998E0;-1,216570854E1;-3,483351469E0
1,503928862E2;-1,689931035E0;-1,506222057E1;-3,637090325E-1
1,504928862E2;1,105484009E0;-1,050927734E1;2,535195589E0
1,505928862E2;-3,260220885E-1;-3,815953970E0;1,432104349E0
1,506928862E2;-9,242277741E-1;-7,381259441E0;-2,813361168E0
1,507928862E2;2,077568293E0;-9,141180992E0;-6,845865726E0
1,508928862E2;-3,423531055E0;-1,062831974E1;-1,111466169E0
1,509928862E2;6,634100676E-1;-1,366660690E1;4,811367989E0
1,510928862E2;1,112662554E0;-1,004267693E1;-1,147358418E0
1,511928862E2;-1,498505235E0;-8,009375572E0;3,493520916E-1
1,512928862E2;-1,106680483E-1;-1,067916775E1;-6,083751321E-1
1,513928862E2;1,588235974E0;-1,250249863E1;-2,350948334E0
1,514928862E2;-1,241874933E0;-1,422592926E1;-9,870393276E-1
1,515928862E2;1,074975610E0;-1,089452171E1;2,066800594E0
1,516928862E2;-4,187439568E-3;-5,834300041E0;1,107876897E0
1,517928862E2;-2,321636200E0;-5,420939922E0;-5,467599630E-1
1,518928862E2;7,680960655E0;-1,742692757E1;-9,143573761E0
1,519928862E2;-1,067797065E0;-1,523928928E1;9,643075466E-1
1,520928862E2;-5,179862976E0;-6,349953175E0;1,623530149E0
1,521928862E2;3,966103494E-1;-1,250010586E1;-1,520638824E0
1,522928862E2;1,049850941E0;-7,980661869E0;7,058826834E-2
1,523928862E2;-1,462014675E0;-9,959526062E0;-1,782054663E0
1,524928862E2;1,318445325E0;-1,087657547E1;1,487737536E0
1,525928862E2;2,380858421E0;-1,268614769E1;-7,429714203E-1
1,526928862E2;-4,720440865E0;-1,703270912E1;2,565105915E0
1,527928862E2;2,229512453E0;-8,326424599E0;1,452443361E0
1,528928862E2;-1,989033818E0;-1,881955028E0;2,312663078E0
1,529928862E2;7,113861561E0;-1,558864117E1;-9,136993408E0
1,530928862E2;3,893122435E0;-9,071190834E0;-6,315855503E0
1,531928862E2;-5,011766911E0;-9,998409271E0;5,395814776E-1
1,532928862E2;5,180460811E-1;-1,333639717E1;6,849454641E-1
1,533928862E2;1,543968797E0;-9,345169067E0;-9,571290575E-3
1,534928862E2;-1,791027784E0;-9,122037888E0;1,034895778E-1
1,535928862E2;-7,740781307E-1;-1,050748253E1;-8,249256015E-1
1,536928862E2;2,290529490E0;-1,312343597E1;-1,534397483E0
1,537928862E2;-2,737389088E0;-1,405125237E1;-7,214360237E-1
1,538928862E2;1,866401672E0;-1,129232788E1;2,976671457E0
1,539928862E2;-2,087737769E-1;-6,189035892E0;1,102493048E0
1,540928862E2;-5,808576941E-1;-6,606583118E0;-2,685345173E0
1,541928862E2;6,781857491E0;-1,549472332E1;-6,106483459E0
1,542928862E2;-2,845664263E0;-1,042492962E1;2,548356056E-1
1,543928862E2;-2,694916487E0;-7,972286701E0;3,883551121E0
1,544928862E2;9,684949517E-1;-1,048475075E1;-4,402793646E-1
1,545928862E2;-2,297109663E-1;-6,920042992E0;2,327618122E0
1,546928862E2;-9,290133715E-1;-9,654440880E0;-9,290133715E-1
1,547928862E2;3,466003656E0;-1,121216869E1;1,332802176E0
1,548928862E2;2,111067772E0;-1,250967693E1;1,794617064E-2
1,549928862E2;-6,377470493E0;-1,614437485E1;1,975275040E0
1,550928862E2;2,806182861E0;-8,678169250E0;8,602197170E-1
1,551928862E2;-2,130808592E0;-2,455035925E0;2,129014015E0
1,552928862E2;6,403791428E0;-1,434616852E1;-7,198806763E0
1,553928862E2;3,504288673E0;-9,872786522E0;-5,423930645E0
1,554928862E2;-4,106681824E0;-1,007497978E1;-1,571486235E0
1,555928862E2;-1,238285750E-1;-1,339202976E1;2,894717216E0
1,556928862E2;1,996212244E0;-9,548559189E0;-6,334998012E-1
1,557928862E2;-2,282752752E0;-8,681758881E0;-2,045863420E-1
1,558928862E2;-5,629115105E-1;-1,019342422E1;-4,103690982E-1
1,559928862E2;1,854437590E0;-1,257428265E1;-2,307877541E0
1,560928862E2;-1,814955950E0;-1,375035572E1;-6,400800347E-1
1,561928862E2;-2,673979402E-1;-1,133719349E1;1,349551916E0
1,562928862E2;1,573280841E-1;-6,430710793E0;6,610172391E-1
1,563928862E2;-1,195813060E0;-4,639683247E0;-1,167697430E0
1,564928862E2;7,074978352E0;-1,697468376E1;-8,260622025E0
1,565928862E2;1,746760458E-1;-1,503888988E1;-3,487538993E-1
1,566928862E2;-5,300102234E0;-7,453044415E0;6,329016089E-1
1,567928862E2;1,328016520E-1;-1,349013615E1;4,707878530E-1
1,568928862E2;1,667797327E0;-8,382656097E0;4,785645287E-3
1,569928862E2;-2,979662418E0;-8,768498421E0;-2,033301115E0
1,570928862E2;2,395813704E0;-1,118046379E1;1,291526079E0
1,571928862E2;2,884547710E0;-1,218425274E1;-1,201196909E0
1,572928862E2;-5,615954876E0;-1,717986870E1;7,471588850E-1
1,573928862E2;3,034697294E0;-9,117850304E0;2,041077614E0
1,574928862E2;-1,889731646E0;-2,623729944E0;1,124028444E0
1,575928862E2;4,070789337E0;-1,085204887E1;-5,356931686E0
1,576928862E2;4,503890514E0;-1,252223873E1;-6,121438503E0
1,577928862E2;-5,655436516E0;-7,966304779E0;-1,909472466E0
1,578928862E2;-1,855633974E0;-8,887541771E0;4,033102512E0
1,579928862E2;1,992024899E0;-9,670592308E0;-3,804588020E-1
1,580928862E2;-1,960319996E0;-8,487939835E0;4,019941986E-1
1,581928862E2;-7,052844763E-1;-1,004506969E1;-3,906283081E-1
1,582928862E2;9,786644578E-1;-1,269631672E1;-2,289931297E0
1,583928862E2;2,300100803E0;-1,266042423E1;-1,166501045E-1
1,584928862E2;-1,220339537E0;-1,301575851E1;-6,903293133E-1
1,585928862E2;7,513462901E-1;-7,158128738E0;1,535593987E0
1,586928862E2;-2,918645382E0;-3,812962770E0;-4,845465720E-1
1,587928862E2;6,246463299E0;-1,820579147E1;-9,665806770E0
1,588928862E2;8,261220455E-1;-1,385623741E1;-3,077768087E0
1,589928862E2;-4,750350952E0;-7,031309128E0;3,882354736E0
1,590928862E2;-1,196411345E-2;-1,104227829E1;-8,039883971E-1
1,591928862E2;6,867401004E-1;-8,065607071E0;8,512466550E-1
1,592928862E2;-1,562513232E0;-9,868598938E0;-1,783251047E0
1,593928862E2;5,539384484E-1;-1,046261692E1;1,866999865E0
1,594928862E2;3,293122053E0;-1,228534985E1;-2,219941139E0
1,595928862E2;-3,424727440E0;-1,611865234E1;1,750349760E0
1,596928862E2;2,925823927E0;-1,053320503E1;2,531008244E0
1,597928862E2;-1,331007600E0;-4,682754040E0;2,142772675E0
1,598928862E2;1,677966833E0;-9,662218094E0;-5,864808083E0
1,599928862E2;4,920839787E0;-1,213878918E1;-4,724628448E0
1,600928862E2;-2,540579557E0;-1,084965611E1;-1,019342422E0
1,601928862E2;-2,766701221E0;-7,390232563E0;4,572684288E0
1,602928862E2;2,312064886E0;-9,425328255E0;-1,287936807E0
1,603928862E2;-1,357926875E-1;-7,179664135E0;2,544766903E0
1,604928862E2;-4,989035130E-1;-1,051884842E1;-3,858426511E-1
1,605928862E2;4,223332107E-1;-1,208913803E1;-3,166302681E0
1,606928862E2;1,722832322E-1;-1,317368507E1;-3,002992272E-1
1,607928862E2;-1,556531072E0;-1,186660576E1;-5,575276613E-1
1,608928862E2;1,118046403E0;-6,327819347E0;1,067198873E0
1,609928862E2;-1,549352646E0;-3,689134359E0;-9,439685345E-1
1,610928862E2;7,258627415E0;-1,839422607E1;-8,319246292E0
1,611928862E2;-3,391826153E-1;-1,147119141E1;6,765705943E-1
1,612928862E2;-3,669393539E0;-1,066600704E1;-7,674978375E-1
1,613928862E2;-3,918247223E-1;-1,321436310E1;-5,802594870E-2
1,614928862E2;1,403988719E0;-8,308478355E0;-1,477568001E-1
1,615928862E2;-1,685145378E0;-1,029691410E1;-2,349751949E0
1,616928862E2;1,682154298E0;-1,039262676E1;1,475175142E0
1,617928862E2;2,712264538E0;-1,234816170E1;-1,596610904E0
1,618928862E2;-3,464209080E0;-1,662174225E1;2,370688915E0
1,619928862E2;2,448455811E0;-9,367302895E0;2,553740025E0
1,620928862E2;-1,577468276E0;-2,894717216E0;2,315654039E0
1,621928862E2;3,920041800E0;-1,205743313E1;-6,658627033E0
1,622928862E2;4,444069862E0;-1,119960594E1;-4,898108006E0
1,623928862E2;-3,781257868E0;-9,351150513E0;-7,782655358E-1
1,624928862E2;-1,864008784E0;-8,268997192E0;3,886542082E0
1,625928862E2;2,083550215E0;-9,352945328E0;7,938188910E-1
1,626928862E2;-3,774677813E-1;-7,328617573E0;1,414158225E0
1,627928862E2;-9,092726111E-1;-9,627521515E0;7,304090858E-1
1,628928862E2;3,662813187E0;-1,156271744E1;6,951149702E-1
1,629928862E2;1,304686546E0;-1,249771309E1;6,011967063E-1
1,630928862E2;-2,501097918E0;-1,248455238E1;-1,546959877E0
1,631928862E2;2,081157446E0;-7,459624767E0;1,070788145E0
1,632928862E2;-2,956930637E0;-3,986442566E0;-3,056831062E-1
1,633928862E2;7,583453178E0;-1,658106422E1;-9,003593445E0
1,634928862E2;8,883354068E-1;-1,286560917E1;-3,236292601E-1
1,635928862E2;-6,404987812E0;-8,304290771E0;5,204389244E-2
1,636928862E2;6,466603279E-1;-1,309711456E1;-4,205385745E-1
1,637928862E2;2,499901533E0;-8,728418350E0;2,482553422E-1
1,638928862E2;-2,480160713E0;-8,935996056E0;-1,255035520E0
1,639928862E2;3,409772366E-2;-1,126780224E1;1,830509305E-1
1,640928862E2;2,015953064E0;-1,201675510E1;-3,620938778E0
1,641928862E2;-2,659622431E0;-1,505922890E1;-6,879365444E-2
1,642928862E2;1,640279889E0;-1,042074299E1;2,936591625E0
1,643928862E2;-1,048654556E0;-4,557130814E0;1,412363529E0
1,644928862E2;-5,353940725E-1;-6,450451851E0;-4,051646709E0
1,645928862E2;6,084948063E0;-1,561316776E1;-6,734599113E0
1,646928862E2;-9,337990284E-1;-1,295773315E1;-8,111668825E-1
1,647928862E2;-3,078964472E0;-7,138986588E0;3,671188116E0
1,648928862E2;2,201396823E-1;-1,125583744E1;-1,429711580E0
1,649928862E2;4,683950245E-1;-7,561917782E0;1,663011789E0
1,650928862E2;-1,275972724E0;-1,014437199E1;-1,835294962E0
1,651928862E2;2,249253273E0;-1,106800079E1;1,235892892E0
1,652928862E2;7,399803996E-1;-1,297149181E1;-9,445667267E-1
1,653928862E2;-5,225924492E0;-1,541037560E1;2,184048891E0
1,654928862E2;1,630708575E0;-1,011027431E1;1,944766641E0
1,655928862E2;-3,068794966E0;-1,119242787E0;6,095715761E-1
1,656928862E2;6,684948444E0;-1,368215942E1;-8,160721779E0
1,657928862E2;1,511067510E0;-1,192283726E1;-2,210369825E0
1,658928862E2;-4,740181446E0;-9,586245537E0;2,632104978E-2
1,659928862E2;-7,022934556E-1;-1,342373466E1;-5,904290080E-1
1,660928862E2;1,594816327E0;-9,518648148E0;-7,238288224E-2
1,661928862E2;-1,819143414E0;-8,729017258E0;-2,237289101E-1
1,662928862E2;-4,809573591E-1;-1,049791145E1;-3,816552162E-1
1,663928862E2;1,071984529E0;-1,240857983E1;-3,108874798E0
1,664928862E2;-1,226321578E0;-1,383350563E1;-6,197410822E-1
1,665928862E2;-6,496513486E-1;-1,126600742E1;-1,126421213E0
1,666928862E2;-9,212367237E-2;-5,828916073E0;1,110867858E0
1,667928862E2;-8,967102766E-1;-6,166304111E0;-1,872981906E0
1,668928862E2;7,521838188E0;-1,589492226E1;-6,800402164E0
1,669928862E2;-5,784648657E-1;-1,543968773E1;4,366901219E-1
1,670928862E2;-4,375276089E0;-6,162714481E0;2,522035122E0
1,671928862E2;5,982056726E-3;-1,163928795E1;-1,457827210E0
1,672928862E2;1,062413216E0;-7,683353424E0;1,077966571E0
1,673928862E2;-2,081755638E0;-1,070429230E1;-2,590828657E0
1,674928862E2;2,348555326E0;-1,063669491E1;2,225325108E0
1,675928862E2;2,740978241E0;-1,279202938E1;-1,552343726E0
1,676928862E2;-2,787638426E0;-1,630289841E1;2,748156786E0
1,677928862E2;2,867199659E0;-8,718847275E0;2,837887764E0
1,678928862E2;-1,606780410E0;-2,833700180E0;1,663609982E0
1,679928862E2;4,521238327E0;-1,235354519E1;-7,833503246E0
1,680928862E2;4,522434771E-1;-1,087238789E1;-2,751745939E0
1,681928862E2;-5,255236626E0;-9,038289070E0;-1,697109461E0
1,682928862E2;9,906286001E-1;-1,307916832E1;-2,249253243E-1
1,683928862E2;7,531409264E-1;-9,617950439E0;7,220342159E-1
1,684928862E2;-2,496910334E0;-8,484949112E0;2,709871531E-1
1,685928862E2;-2,159522474E-1;-1,041057301E1;9,571290575E-3
1,686928862E2;1,254437327E0;-1,237328625E1;-2,815753937E0
1,687928862E2;1,932204217E-1;-1,356790257E1;-2,093719840E-1
1,688928862E2;-1,107876897E0;-1,129292679E1;4,342973232E-1
1,689928862E2;3,828516304E-1;-6,595217228E0;9,403793216E-1
1,690928862E2;-2,232503414E0;-5,624927998E0;-9,044869542E-1
1,691928862E2;7,249654293E0;-1,660798454E1;-6,934998035E0
1,692928862E2;-2,560918331E0;-1,547857189E1;1,264606714E0
1,693928862E2;-5,191826820E0;-6,779464722E0;3,196810961E0
1,694928862E2;2,416750938E-1;-1,070309544E1;-2,042274237E0
1,695928862E2;3,672982752E-1;-7,372286797E0;1,546361685E0
1,696928862E2;-8,919246197E-1;-9,565308571E0;6,107679605E-1
1,697928862E2;2,479562521E0;-1,095374393E1;4,725824669E-2
1,698928862E2;7,250252366E-1;-1,291825104E1;4,247260094E-1
1,699928862E2;-7,131807804E0;-1,749332809E1;3,061018467E0
1,700928862E2;1,564307809E0;-7,052844524E0;1,133001566E0
1,701928862E2;-3,065205812E0;-1,564906001E0;2,379662037E0
1,702928862E2;8,825926781E0;-1,791506386E1;-9,288937569E0
1,703928862E2;2,434098721E0;-8,527421951E0;-6,618547440E0
1,704928862E2;-6,213562012E0;-6,478567123E0;2,607578516E0
1,705928862E2;7,375875711E-1;-1,091426182E1;3,828516230E-2
1,706928862E2;-2,021935135E-1;-8,636893272E0;1,856232166E0
1,707928862E2;-1,339382529E0;-9,742377281E0;-3,323630571E0
1,708928862E2;2,094916344E0;-1,031186962E1;1,589432478E0
1,709928862E2;2,979064226E0;-1,210110188E1;-1,391426325E0
1,710928862E2;-4,630710125E0;-1,738385582E1;2,140379906E0
1,711928862E2;3,165106058E0;-9,442078590E0;2,773281336E0
1,712928862E2;-1,829312921E0;-3,194418192E0;2,241476536E0
1,713928862E2;5,531607628E0;-1,140299606E1;-8,033902168E0
1,714928862E2;4,677968502E0;-1,149930763E1;-4,022933006E0
1,715928862E2;-8,227122307E0;-6,135197163E0;2,979662418E0
1,716928862E2;-1,090528965E0;-1,221715450E1;5,336592674E0
1,717928862E2;-4,079762697E-1;-7,923233986E0;2,406581402E0
1,718928862E2;-1,898106575E0;-7,522436142E0;1,052243710E0
1,719928862E2;3,627519131E0;-1,070130062E1;7,495517135E-1
1,720928862E2;2,042274237E0;-1,236850071E1;4,109672904E-1
1,721928862E2;-5,961717606E0;-1,634537125E1;4,522434771E-1
1,722928862E2;-5,659623623E0;-1,418525124E1;-1,156929731E0
1,723928862E2;-1,208375454E0;-4,900500774E0;1,035493970E0
1,724928862E2;-3,692125320E0;-1,460219979E0;1,651047587E0
1,725928862E2;6,010770321E0;-1,462194061E1;-5,454439163E0
1,726928862E2;1,978266120E0;-8,350353241E0;-5,059623718E0
1,727928862E2;-3,194418192E0;-7,137789726E0;5,085944653E0
1,728928862E2;1,387837082E-1;-1,433420372E1;4,363312244E0
1,729928862E2;-3,840480447E-1;-7,322037220E0;2,461018085E0
1,730928862E2;1,716850251E-1;-9,790233612E0;7,573283911E-1
1,731928862E2;2,115853310E0;-1,087119102E1;2,530409992E-1
1,732928862E2;8,261220455E-1;-1,383350563E1;1,639083475E-1
1,733928862E2;-6,190830231E0;-1,705005836E1;2,754737139E0
1,734928862E2;6,879365444E-2;-6,940980434E0;1,081555843E0
1,735928862E2;-2,777468920E0;-4,588237405E-1;2,593819857E0
1,736928862E2;7,673183918E0;-1,892483521E1;-8,641678810E0
1,737928862E2;2,807977438E0;-6,623931408E0;-6,939185619E0
1,738928862E2;-5,014758110E0;-8,427521706E0;3,122633457E0
1,739928862E2;-2,136192322E0;-1,164048386E1;4,761118889E0
1,740928862E2;2,226521492E0;-7,302296638E0;-2,147558331E-1
1,741928862E2;-8,081758618E-1;-7,784450054E0;1,644467354E0
1,742928862E2;1,980060697E0;-1,067258739E1;8,153542876E-1
1,743928862E2;1,983051777E0;-1,150349522E1;-1,706680775E0
1,744928862E2;-5,045266628E0;-1,803051758E1;3,190829039E0
1,745928862E2;-2,033899307E0;-1,354098320E1;-2,395813704E0
1,746928862E2;-2,587239504E0;-1,070189953E0;2,788236618E0
1,747928862E2;-2,970689297E0;-2,979064226E0;2,392822653E-1
1,748928862E2;2,964108944E0;-7,681559086E0;-6,213562012E0
1,749928862E2;7,028916478E-1;-1,585903072E1;7,710871100E-1
1,750928862E2;-1,730608940E0;-1,132582760E1;4,649852753E0
1,751928862E2;5,186443329E-1;-1,276869965E1;-8,685946465E-1
1,752928862E2;-1,167099237E0;-7,593622684E0;1,252642632E0
1,753928862E2;-1,130010486E0;-8,876773834E0;-2,513660192E0
1,754928862E2;2,454437733E0;-1,212323570E1;-1,642074585E0
1,755928862E2;-6,693323135E0;-1,801974869E1;4,654039860E0
1,756928862E2;-1,259821177E0;-1,286321640E1;-9,726824164E-1
1,757928862E2;-2,598605394E0;-5,545366406E-1;2,033301115E0
1,758928862E2;-1,837687731E0;-3,388834953E0;-6,891329288E-1
1,759928862E2;9,601200819E-1;-7,228118896E0;-5,356931686E0
1,760928862E2;-3,649054468E-1;-1,332084370E1;1,605584025E0
1,761928862E2;1,890329868E-1;-1,307976723E1;5,221737385E0
1,762928862E2;7,022934556E-1;-1,089511967E1;-2,883351147E-1
1,763928862E2;-1,131206870E0;-8,246265411E0;4,618147612E-1
1,764928862E2;-7,645068169E-1;-8,479565620E0;-2,167299032E0
1,765928862E2;3,406781197E0;-1,121037388E1;-3,415754318E0
1,766928862E2;-3,511467278E-1;-1,661217117E1;-2,454437733E0
1,767928862E2;3,702892959E-1;-1,223629665E1;1,306481123E0
1,768928862E2;-1,269990563E0;-4,278964996E0;1,376471281E0
1,769928862E2;-1,902294040E0;-4,616353035E0;-1,290927768E0
1,770928862E2;5,404190063E0;-1,890629005E1;-8,615358353E0
1,771928862E2;-2,705085993E0;-1,500838184E1;1,322632670E0
1,772928862E2;-3,334398270E0;-7,150950432E0;3,726821184E0
1,773928862E2;1,363908947E-1;-1,121934700E1;-5,389832854E-1
1,774928862E2;3,499503136E-1;-7,286144733E0;1,722832322E-1
1,775928862E2;4,600201547E-1;-1,013958549E1;-7,549355626E-1
1,776928862E2;3,312862873E0;-1,105065346E1;1,333998591E-1
1,777928862E2;-2,570489645E0;-1,621795273E1;-3,018545866E0
1,778928862E2;-6,509075642E0;-1,681735611E1;2,078166485E0
1,779928862E2;-1,092323542E0;-5,005784988E0;1,611566067E0
1,780928862E2;-1,408774376E0;-4,503890514E0;-2,084746838E0
1,781928862E2;6,951747894E0;-1,733480453E1;-7,716853142E0
1,782928862E2;-3,023331404E0;-1,356790257E1;1,856830359E0
1,783928862E2;-1,544566989E0;-8,757132530E0;3,420539856E0
1,784928862E2;4,707878530E-1;-1,045783138E1;-5,802595019E-1
1,785928862E2;7,262216806E-1;-6,157928944E0;9,960124493E-1
1,786928862E2;2,097907305E0;-1,016052341E1;1,311864972E0
1,787928862E2;2,867797852E0;-1,132104206E1;9,152546525E-1
1,788928862E2;-4,558327198E0;-1,940997887E1;-1,133001566E0
1,789928862E2;-6,882954121E0;-1,904866219E1;-3,296113312E-1
1,790928862E2;-2,642872572E0;-2,074577332E0;2,678166628E0
1,791928862E2;-4,226323128E0;2,955136001E-1;1,759921074E0
1,792928862E2;4,142574310E0;-1,067916775E1;-4,292125702E0
1,793928862E2;1,186840057E0;-1,073539925E1;-4,188037872E0
1,794928862E2;-2,864806890E0;-9,786046028E0;3,458226919E0
1,795928862E2;-9,272187948E-1;-1,468056488E1;1,087537885E0
1,796928862E2;-8,249256015E-1;-6,862017155E0;1,893919110E0
1,797928862E2;-2,557927370E0;-1,017248726E1;-3,786641836E0
1,798928862E2;1,802393675E0;-1,221236897E1;-2,787638307E-1
1,799928862E2;2,678765059E0;-1,252463150E1;-8,231309652E-1
1,800928862E2;-5,818148136E0;-1,436770344E1;-6,981059909E-1
1,801928862E2;2,728415966E0;-9,977472305E0;2,191825628E0
1,802928862E2;-3,134597778E0;-2,356930375E-1;1,712064624E0
1,803928862E2;3,291925669E0;-1,223569870E1;-6,747759819E0
1,804928862E2;1,140179992E0;-1,318923855E1;-4,185046673E0
1,805928862E2;-1,500898004E0;-8,632705688E0;4,517050743E0
1,806928862E2;2,488535494E-1;-1,407398415E1;-2,051845491E-1
1,807928862E2;-1,417747438E-1;-7,168896675E0;1,951346874E0
1,808928862E2;-2,318047047E0;-9,361320496E0;-7,842476368E-1
1,809928862E2;2,742174864E0;-1,099382401E1;2,000998020E0
1,810928862E2;3,732803464E-1;-1,233021545E1;-2,806182861E0
1,811928862E2;-5,836692810E0;-1,652243996E1;1,838884234E0
1,812928862E2;-2,130210400E0;-1,153101254E1;-1,770090580E0
1,813928862E2;-2,071586132E0;-1,555334687E0;2,215753794E0
1,814928862E2;-3,258426189E0;-3,435495138E0;1,992024779E-1
1,815928862E2;4,153940201E0;-8,988039970E0;-4,958526611E0
1,816928862E2;2,727817893E-1;-1,163270760E1;8,231309652E-1
1,817928862E2;-1,760519266E0;-7,852645874E0;4,645665169E0
1,818928862E2;-3,523431420E-1;-1,368814182E1;1,584048629E0
1,819928862E2;-8,955138922E-1;-7,543373585E0;1,816152334E0
1,820928862E2;-2,697907448E0;-8,420342445E0;-1,889133453E0
1,821928862E2;3,544368505E0;-1,157827091E1;6,580262184E-1
1,822928862E2;2,307279348E0;-1,281296730E1;-1,082154036E0
1,823928862E2;-5,024927616E0;-1,497787380E1;-2,522633314E0
1,824928862E2;2,916252613E0;-8,989834785E0;1,877767563E0
1,825928862E2;-3,234498024E0;-1,665404558E0;1,380658627E0
1,826928862E2;4,252045631E0;-1,142991543E1;-7,094718933E0
1,827928862E2;1,380658627E0;-1,589552116E1;-2,475374937E0
1,828928862E2;-7,236494064E0;-5,574678421E0;1,830509305E0
1,829928862E2;5,982056726E-3;-1,324786282E1;-1,143769264E0
1,830928862E2;-5,018945336E-1;-7,121638298E0;1,467996716E0
1,831928862E2;-2,957528830E0;-8,102097511E0;-3,942175388E0
1,832928862E2;2,549552441E0;-1,245882893E1;1,178465188E-1
1,833928862E2;4,822733879E0;-1,160997581E1;-5,018945336E-1
1,834928862E2;-6,708876610E0;-1,842234230E1;-2,879761934E0
1,835928862E2;3,077768087E0;-1,165424252E1;1,557727575E0
1,836928862E2;-2,935993433E0;-2,512463741E-2;9,068797827E-1
1,837928862E2;6,549155712E0;-9,420542717E0;-1,039980507E1
1,838928862E2;-1,742573142E0;-1,370608807E1;-1,104108143E1
1,839928862E2;-2,274377823E0;-4,785645485E0;1,609771490E0
1,840928862E2;-2,171486616E-1;-1,056730270E1;-6,861419082E-1
1,841928862E2;5,324030295E-2;-1,027537823E1;3,912265003E-1
1,842928862E2;-1,279561877E0;-7,371688366E0;9,750752449E-1
1,843928862E2;-2,863012314E0;-9,769296646E0;-1,571486235E0
1,844928862E2;4,001397610E0;-1,387478256E1;-3,002992272E-1
1,845928862E2;1,728814393E-1;-1,339861012E1;3,475574851E-1
1,846928862E2;-3,120838881E0;-1,255274773E1;-5,347958803E-1
1,847928862E2;1,663609982E0;-8,849854469E0;2,943171859E-1
1,848928862E2;-1,180259824E0;-1,851446509E0;-1,677966833E0
1,849928862E2;3,886542082E0;-1,257966709E1;-7,904689789E0
1,850928862E2;-2,140379906E0;-1,481037617E1;-2,246860504E0
1,851928862E2;-3,064607620E0;-6,305685997E0;2,346760750E0
1,852928862E2;5,491527915E-1;-1,233200932E1;2,231905222E0
1,853928862E2;1,029511929E0;-1,030169964E1;-1,344766378E0
1,854928862E2;-2,283949137E0;-8,580661774E0;5,060819983E-1
1,855928862E2;1,902294040E0;-1,180558872E1;1,299302697E0
1,856928862E2;1,902892232E0;-1,234098244E1;-1,095912814E0
1,857928862E2;-5,130809784E0;-1,613480377E1;3,290131316E-2
1,858928862E2;-1,612762451E0;-9,911071777E0;3,655036688E-1
1,859928862E2;-2,602194548E0;-8,626125455E-1;2,158325911E0
1,860928862E2;-5,688936114E-1;-5,215157032E0;-3,041875839E0
1,861928862E2;1,372882009E0;-8,127222061E0;-6,450451851E0
1,862928862E2;-2,383251429E0;-1,186421299E1;2,871387079E-2
1,863928862E2;7,938188910E-1;-1,452443314E1;4,929812908E0
1,864928862E2;6,251249313E-1;-9,970891953E0;-9,074779749E-1
1,865928862E2;-1,649851203E0;-8,387441635E0;8,811569214E-1
1,866928862E2;-2,444268227E0;-9,739386559E0;-1,849651933E0
1,867928862E2;2,178066730E0;-1,267238903E1;-1,741974831E0
1,868928862E2;-3,337987661E-1;-1,345843124E1;-1,752742529E-1
1,869928862E2;-4,150351048E0;-1,337228966E1;-1,208973646E0
1,870928862E2;2,194218397E0;-8,409575462E0;1,724626899E0
1,871928862E2;-2,702095032E0;-2,198405743E0;2,404786795E-1
1,872928862E2;7,956733704E0;-1,520040607E1;-8,282755852E0
1,873928862E2;2,048256159E0;-1,320957756E1;-5,545366406E-1
1,874928862E2;-6,053841114E0;-9,044869423E0;4,217350006E0
1,875928862E2;-6,137589812E-1;-1,183370399E1;-2,404188633E0
1,876928862E2;9,631111026E-1;-7,336992264E0;1,145563841E0
1,877928862E2;-3,428316593E0;-8,964112282E0;-1,864008784E0
1,878928862E2;1,915454507E0;-1,203589821E1;1,136590764E-1
1,879928862E2;3,048455954E0;-1,348893929E1;-8,416753411E-1
1,880928862E2;-6,064010620E0;-1,439282799E1;-1,256231815E-1
1,881928862E2;2,481955290E0;-1,070608711E1;2,799602509E0
1,882928862E2;-2,869592667E0;-1,186241865E0;1,588235974E0
1,883928862E2;-1,048654556E0;-5,523830891E0;-2,108675003E0
1,884928862E2;2,018345833E0;-7,256833076E0;-5,377270699E0
1,885928862E2;6,550351977E-1;-1,494915962E1;6,388836503E-1
1,886928862E2;-8,255238086E-2;-1,193360519E1;5,189434052E0
1,887928862E2;4,648058116E-1;-1,205085278E1;-2,816950560E0
1,888928862E2;-1,488933921E0;-7,749155998E0;2,362314224E0
1,889928862E2;-3,122633457E0;-8,941379547E0;-2,145763636E0
1,890928862E2;3,241078377E0;-1,169073296E1;1,616949916E0
1,891928862E2;1,211964726E0;-1,283330631E1;-1,653440475E0
1,892928862E2;-4,231706619E0;-1,433420372E1;1,755733609E0
1,893928862E2;1,293918848E0;-1,092263699E1;1,256231904E0
1,894928862E2;-2,709273338E0;-2,704487801E0;1,680359721E0
1,895928862E2;-2,337189436E0;-5,486144066E0;-1,033101201E0
1,896928862E2;4,249054909E0;-1,034058285E1;-5,705685616E0
1,897928862E2;1,938784599E0;-1,375095367E1;-1,177268744E0
1,898928862E2;-1,531406492E-1;-1,292782211E1;3,619742393E0
1,899928862E2;2,937189937E-1;-1,076710415E1;-1,392024517E0
1,900928862E2;-1,039681435E0;-7,771887779E0;1,569093466E0
1,901928862E2;-2,404786825E0;-9,093324661E0;-1,124028444E0
1,902928862E2;2,381456852E0;-1,090289593E1;1,907079697E0
1,903928862E2;4,145565331E-1;-1,287577820E1;2,697907388E-1
1,904928862E2;-5,874379635E0;-1,537807274E1;2,866601467E0
1,905928862E2;6,047859192E-1;-7,491329670E0;1,119840980E0
1,906928862E2;-2,257030010E0;-2,873780012E0;1,861616015E0
1,907928862E2;6,324828625E0;-1,280279732E1;-6,896114826E0
1,908928862E2;4,747360229E0;-1,078804111E1;-5,481358528E0
1,909928862E2;-6,192625046E0;-8,902496338E0;-1,496112347E0
1,910928862E2;-1,332802176E0;-8,925228119E0;4,331607342E0
1,911928862E2;1,564307809E0;-9,729216576E0;6,580262631E-2
1,912928862E2;-4,989035130E-1;-7,908278942E0;1,629512191E0
1,913928862E2;-1,439880967E0;-9,229117393E0;-6,287141442E-1
1,914928862E2;8,799605370E-1;-1,075813103E1;1,932204247E0
1,915928862E2;1,248455167E0;-1,134736347E1;-1,071984529E0
1,916928862E2;-1,674377680E0;-1,263350582E1;-3,804588020E-1
1,917928862E2;2,985046208E-1;-1,155733299E1;2,865405083E-1
1,918928862E2;-5,198407173E-1;-7,380661488E0;3,140579760E-1
1,919928862E2;-1,818545222E0;-4,381258488E0;-3,272185028E-1
1,920928862E2;5,806782246E0;-1,092742252E1;-6,116652966E0
1,921928862E2;1,032503009E0;-8,344968796E0;-4,078566074E0
1,922928862E2;-8,153542876E-1;-1,267777252E1;7,345965505E-1
1,923928862E2;-7,112665176E-1;-1,167936707E1;4,336990833E0
1,924928862E2;4,444667995E-1;-1,096152020E1;-1,710868239E0
1,925928862E2;-1,236491084E0;-8,655437469E0;1,426720500E0
1,926928862E2;-1,912463546E0;-9,053244591E0;-4,600201547E-1
1,927928862E2;1,307677627E0;-1,079880905E1;1,037288666E0
1,928928862E2;2,324028969E0;-1,209332561E1;5,982056609E-4
1,929928862E2;-4,816751957E0;-1,536969757E1;1,865803480E0
1,930928862E2;2,121237278E0;-1,095793152E1;1,200598717E0
1,931928862E2;-1,712064624E0;-5,391029358E0;1,473978758E0
1,932928862E2;-5,306084156E-1;-5,712265968E0;-1,864607096E0
1,933928862E2;6,927819729E0;-1,513819218E1;-6,863213539E0
1,934928862E2;2,286342144E0;-1,251625729E1;-1,019342422E0
1,935928862E2;-5,824130535E0;-8,010572433E0;6,149554253E-1
1,936928862E2;6,963114142E-1;-1,189711380E1;-4,498506486E-1
1,937928862E2;1,458425403E0;-9,757930756E0;5,503492355E-1
1,938928862E2;-1,168893814E0;-8,705088615E0;5,066801906E-1
1,939928862E2;-1,206580877E0;-9,890732765E0;-3,726821244E-1
1,940928862E2;8,285148144E-1;-1,164347458E1;1,094716311E0
1,941928862E2;1,081555843E0;-1,211725426E1;-1,105484009E0
1,942928862E2;-5,090730190E0;-1,323769283E1;1,923829436E0
1,943928862E2;-7,549355626E-1;-1,095075321E1;4,917250574E-1
1,944928862E2;-1,840678811E0;-3,314657450E0;1,144367456E0
1,945928862E2;-1,609771490E0;-4,550550461E0;-7,226324677E-1
1,946928862E2;3,364308596E0;-9,702297211E0;-6,207580090E0
1,947928862E2;2,527418852E0;-1,415653706E1;-1,810170293E0
1,948928862E2;-9,774680734E-1;-1,062592697E1;2,106282234E0
1,949928862E2;1,130608693E-1;-1,174995518E1;-2,697907388E-1
1,950928862E2;-4,037888348E-1;-7,739584923E0;1,809572101E0
1,951928862E2;-2,292324066E0;-8,581260681E0;-9,571290575E-3
1,952928862E2;2,676970243E0;-1,123430252E1;2,248056889E0
1,953928862E2;5,635097623E-1;-1,206939697E1;1,375873014E-2
1,954928862E2;-6,128616810E0;-1,417687607E1;1,849651933E0
1,955928862E2;2,554936409E0;-1,038784122E1;1,376471281E0
1,956928862E2;-1,914856315E0;-3,694518089E0;1,172483087E0
1,957928862E2;5,844469070E0;-1,226022530E1;-5,536393166E0
1,958928862E2;4,515854359E0;-1,101894855E1;-5,803791523E0
1,959928862E2;-4,039682865E0;-1,023828983E1;-2,746960402E0
1,960928862E2;-1,975873351E0;-6,942176819E0;4,898108006E0
1,961928862E2;1,460219979E0;-1,031486034E1;-4,420739710E-1
1,962928862E2;-5,120640397E-1;-7,400402069E0;2,857030153E0
1,963928862E2;-1,565504193E0;-1,016590691E1;-1,317847013E0
1,964928862E2;3,339782238E0;-1,096510983E1;1,118046403E0
1,965928862E2;2,792423964E0;-1,212862015E1;-1,405185103E0
1,966928862E2;-3,779463291E0;-1,543011665E1;1,391426325E0
1,967928862E2;3,217149973E0;-1,048953629E1;2,959921598E0
1,968928862E2;-1,121037364E0;-4,631308079E0;1,344168067E0
1,969928862E2;-9,571290761E-2;-7,477570534E0;-3,790829182E0
1,970928862E2;6,442076683E0;-1,484507179E1;-6,299105644E0
1,971928862E2;-1,285543919E0;-1,297627735E1;1,076171994E0
1,972928862E2;-3,707080364E0;-6,960123062E0;3,807579041E0
1,973928862E2;7,866404653E-1;-1,077188969E1;-1,198804140E0
1,974928862E2;5,467599630E-1;-7,576872826E0;1,421934843E0
1,975928862E2;-1,636092424E0;-9,985847473E0;-1,785643935E0
1,976928862E2;1,368694544E0;-1,062772179E1;1,172483087E0
1,977928862E2;2,767897606E0;-1,208016491E1;-1,622931957E0
1,978928862E2;-5,169693470E0;-1,428156185E1;-1,581655741E0
1,979928862E2;2,742773056E0;-1,039143085E1;2,487937450E0
1,980928862E2;-3,489931822E0;-2,568695068E0;1,299900889E0
1,981928862E2;-6,017948985E-1;-7,332206726E0;-2,417349100E0
1,982928862E2;3,049054146E0;-8,122436523E0;-5,058426857E0
1,983928862E2;-9,278169870E-1;-1,476790333E1;1,955534339E0
1,984928862E2;-2,016551256E0;-1,206401348E1;4,548157692E0
1,985928862E2;1,122832060E0;-1,168774223E1;-5,653043389E-1
1,986928862E2;-1,354935765E0;-8,408378601E0;1,384846091E0
1,987928862E2;-2,533999205E0;-9,766903877E0;-2,408974171E0
1,988928862E2;1,599003673E0;-1,174696445E1;7,704889178E-1
1,989928862E2;2,163709879E0;-1,231525993E1;-1,441077471E0
1,990928862E2;-6,729215622E0;-1,459741497E1;-5,647061467E-1
1,991928862E2;2,286342144E0;-1,034237766E1;2,665604353E0
1,992928862E2;-2,690130949E0;-2,006381750E0;1,489532113E0
1,993928862E2;3,750749528E-1;-6,723831654E0;-2,881556749E0
1,994928862E2;1,251446247E0;-7,472187042E0;-5,495715618E0
1,995928862E2;-1,505085468E0;-1,375992680E1;6,634100676E-1
1,996928862E2;-6,364908218E-1;-1,346201992E1;5,158327579E0
1,997928862E2;6,275177598E-1;-1,018505001E1;-7,633104324E-1
1,998928862E2;-5,994020700E-1;-8,796015739E0;1,365105271E0
1,999928862E2;-8,560323119E-1;-9,313464165E0;-1,269990563E0
2,000928862E2;2,089532375E0;-1,135573769E1;3,098705411E-1
2,001928862E2;2,117049932E0;-1,208913803E1;-1,530808330E0
2,002928862E2;-5,045266628E0;-1,480618858E1;-1,338784218E0
2,003928862E2;-1,491924882E0;-3,756133318E0;1,964507341E0
2,004928862E2;-3,480360508E0;-2,640479803E0;1,425524116E0
2,005928862E2;5,967699528E0;-1,352722454E1;-5,557330608E0
2,006928862E2;2,379662037E0;-8,715856552E0;-6,115456581E0
2,007928862E2;-3,777070522E0;-6,542575359E0;4,962714195E0
2,008928862E2;-1,052243710E0;-1,347877026E1;5,431707382E0
2,009928862E2;2,530409992E-1;-7,490133286E0;5,036891699E-1
2,010928862E2;-1,546959877E0;-7,907680511E0;2,170290232E0
2,011928862E2;3,139383316E0;-1,102433205E1;1,502692580E0
2,012928862E2;2,725425005E0;-1,190130138E1;-1,268794179E0
2,013928862E2;-7,366902828E0;-1,775115395E1;2,759522676E0
2,014928862E2;-2,814557552E0;-1,293021584E1;-1,979462504E0
2,015928862E2;-2,187039852E0;-1,466202021E0;1,894517303E0
2,016928862E2;-2,330609322E0;-3,285943747E0;-4,187439755E-2
2,017928862E2;2,283350945E0;-1,036092186E1;-7,095915318E0
2,018928862E2;2,088934183E0;-1,380479240E1;-7,962117195E-1
2,019928862E2;-1,649253011E0;-1,091904831E1;5,077569485E0
2,020928862E2;3,996013701E-1;-1,328196049E1;-1,214357495E0
2,021928862E2;-2,171486616E-1;-7,591827869E0;2,121835470E0
2,022928862E2;-1,314856052E0;-9,221938133E0;-4,331009090E-1
2,023928862E2;1,997408748E0;-1,101356411E1;1,872383714E0
2,024928862E2;1,441675574E-1;-1,203290653E1;-2,522633314E0
2,025928862E2;-6,874579430E0;-1,626820374E1;2,285145670E-1
2,026928862E2;-1,045065284E0;-1,105663490E1;9,571290761E-2
2,027928862E2;-2,822932482E0;-2,276172638E0;2,502294302E0
2,028928862E2;9,366703987E0;-1,710449409E1;-9,418747902E0
2,029928862E2;2,575873613E0;-7,455437183E0;-5,994020939E0
2,030928862E2;-4,615755081E0;-7,590631485E0;3,119044304E0
2,031928862E2;-1,211964726E0;-1,189950657E1;5,075176716E0
2,032928862E2;8,494520187E-1;-7,991429329E0;2,003988922E-1
2,033928862E2;-9,020941257E-1;-7,637291908E0;1,819741607E0
2,034928862E2;1,183848977E0;-1,058345413E1;1,195813060E0
2,035928862E2;2,434697151E0;-1,167338562E1;1,192223907E0
2,036928862E2;-4,262215137E0;-1,578066540E1;-1,386042476E0
2,037928862E2;-6,815955162E0;-1,477807236E1;-6,394818425E-1
2,038928862E2;-1,469791293E0;-5,260022163E0;1,463809252E0
2,039928862E2;-3,120240688E0;-1,995614052E0;1,692921996E0
2,040928862E2;5,481956482E0;-1,542951870E1;-7,913662910E0
2,041928862E2;2,711666346E0;-9,463015556E0;-7,818548203E0
2,042928862E2;-4,853840828E0;-6,713662148E0;4,458426952E0
2,043928862E2;1,615155339E-1;-1,377248859E1;5,571687698E0
2,044928862E2;5,611169338E-1;-7,916653633E0;7,567301393E-1
