"Time (s)";"Linear Acceleration x (m/s^2)";"Linear Acceleration y (m/s^2)";"Linear Acceleration z (m/s^2)"
1,065598000E-2;-1,107062817E0;7,888586521E-1;-3,849973679E-1
1,093349890E-1;-3,135910749E0;2,032271385E0;1,529218674E0
2,080093890E-1;6,080865860E-3;1,748344421E0;5,382484436E0
3,066900040E-1;-1,580755353E0;1,332925200E0;-1,123460770E0
4,053583320E-1;-5,636991262E-1;2,381090224E-1;-1,474231720E0
5,040238520E-1;-1,848736703E-1;5,259223580E-1;-8,345479965E-1
6,027313030E-1;3,377437294E-1;-2,258890629E0;-1,513920784E0
7,014097820E-1;-1,259704232E0;7,315123081E-1;-2,742169857E0
8,000888410E-1;1,348881245E0;-2,112579107E0;1,485722542E0
8,987528250E-1;-1,846504450E0;-1,950241566E0;-4,157114029E0
9,974496450E-1;-2,428802967E0;-2,475432396E0;-5,694350243E0
1,096150779E0;3,934669495E-2;-4,928847313E0;1,138839722E-1
1,194805760E0;9,844347954E0;-4,160425186E0;8,096906662E0
1,293473588E0;9,123554230E0;3,463570833E0;3,754189968E0
1,392154102E0;5,582146168E0;5,723964214E0;-3,345032454E0
1,490852174E0;4,525799751E-1;1,324968338E0;-2,348498106E0
1,589524174E0;-1,293475628E0;-5,381650925E-1;-6,295359135E-1
1,688201972E0;1,689449310E0;-1,842466354E0;4,972640038E0
1,786873777E0;-8,279255867E0;-3,210867882E0;1,245598555E0
1,885545350E0;9,858369827E-1;5,152963161E0;-2,858484983E-1
1,984246637E0;1,428143501E0;4,649438858E-1;-1,941097260E0
2,082912685E0;3,322625160E0;-3,606424332E-1;3,966881633E-1
2,181604490E0;1,766751289E0;-3,672823906E0;-1,407722473E0
2,280285248E0;-1,370007992E0;2,736811399E0;3,631788492E-2
2,378956933E0;-3,073679447E0;5,336361408E0;-2,493458986E0
2,477642329E0;-5,488681793E-2;2,306494236E0;1,343597531E0
2,576312894E0;-1,203682423E0;-6,693965912E0;-7,224093676E-1
2,675000784E0;5,393994808E0;-3,892860889E0;-1,021787763E0
2,773671421E0;-2,455448627E0;2,974118710E0;-2,559067726E0
2,872351019E0;-1,717893600E0;2,905210018E0;1,556296647E-1
2,971036629E0;-1,371689320E0;1,192726135E0;4,692061424E0
3,069722382E0;4,386454582E0;-2,215111732E0;-2,183021069E0
3,168390891E0;-2,388832569E0;2,121652126E0;-1,164996147E0
3,267080327E0;-2,243209124E0;4,977027893E0;-4,703892469E-1
3,365746030E0;-2,431854725E0;2,934467316E0;-3,992674053E-1
3,464442739E0;6,956863403E-1;-2,313117027E0;3,726754189E0
3,563110079E0;3,811541319E0;-1,724453926E0;1,219076037E0
3,661788040E0;4,544949532E0;-1,804468918E1;1,878621817E0
3,760483141E0;2,605800629E0;1,802695274E0;2,615007162E-1
3,859148285E0;8,446290493E-1;-9,426471710E0;1,304439306E0
3,957846254E0;-2,779230118E0;2,475345612E0;4,564495087E-1
4,056520359E0;-1,484097242E-1;5,109059811E0;1,164748192E0
4,155193224E0;2,840519428E0;3,521080017E-1;-4,211261272E0
4,253882731E0;-6,059060097E-1;3,424571514E0;-5,199656010E0
4,352549349E0;-3,384878159E0;-5,920894623E0;-2,708213568E0
4,451245071E0;3,604993820E-1;-7,786436081E-1;-1,150191307E0
4,549921689E0;4,223024845E0;-6,940546036E-1;-1,553408265E0
4,648598540E0;3,751213312E0;1,679522514E0;1,182066441E0
4,747282736E0;3,236343622E0;7,935523987E-3;1,510202885E-1
4,845946994E0;-4,323044777E0;-5,749576569E0;3,597462177E-1
4,944639889E0;-1,962731481E-1;2,583143234E0;1,537841201E0
5,043325113E0;-1,397169948E0;4,608716965E0;-6,826987267E-1
5,142005678E0;5,155745506E0;-5,313178062E0;-2,373009682E0
5,240680973E0;2,967705250E0;3,145484447E0;9,078710675E-1
5,339340785E0;1,647743821E0;-4,921092033E0;1,372494125E1
5,438045357E0;-1,302025080E0;-2,796616554E0;1,723498821E0
5,536720978E0;6,803550720E-1;1,345887661E0;-7,422325015E-1
5,635400526E0;2,908244133E0;3,181656361E0;-2,521023512E0
5,734079840E0;2,112184525E0;4,144649506E-1;-2,605174184E-1
5,832748981E0;3,890763521E0;-1,355390549E0;-1,406422973E0
5,931443075E0;5,564421654E0;2,641582489E-2;-1,350356102E0
6,030109694E0;-1,099038124E0;-9,824738503E0;-1,623700333E1
6,128805984E0;-6,538401604E0;4,096250534E-1;3,537905693E0
6,227490761E0;-3,332892418E0;8,778520584E0;2,554275513E0
6,326148661E0;7,721963525E-2;4,575424194E0;-5,169272423E-3
6,424832308E0;-4,986803532E-1;-1,370587349E0;2,068148851E-1
6,523525905E0;1,339002132E0;2,714821339E0;5,320561886E0
6,622203235E0;-2,196063757E0;5,023111343E0;-7,804963589E0
6,720883199E0;4,135683537E0;-5,836054802E0;-3,620796680E0
6,819549888E0;5,048563957E0;2,471512794E0;-3,670288801E0
6,918241185E0;-4,821464539E0;3,656487942E0;1,499637604E1
7,016911781E0;-1,888569713E0;-4,240718842E0;6,608676910E0
7,115591420E0;-7,277025580E-1;4,805173874E-1;-2,660753727E0
7,214281619E0;7,937181950E0;-1,152309990E1;-1,519518566E1
7,312950668E0;2,728650570E0;9,877738953E-1;-5,769464493E0
7,411650133E0;-9,235475540E0;4,625113487E0;3,955795765E0
7,510321574E0;-6,838750839E-2;-2,812329292E0;5,835765362E0
7,609004071E0;-2,636892796E-1;6,358509064E-1;-3,184757233E0
7,707680739E0;9,592971802E-1;2,332631111E0;-3,527818441E0
7,806349799E0;7,786309242E0;-2,997729301E0;-2,578765392E0
7,905045593E0;5,119934082E0;-3,980810165E0;-2,029699326E0
8,003724540E0;-8,714646339E0;-7,396180153E0;2,127531052E0
8,102405104E0;-3,100308776E-2;-1,213092804E-1;2,921845436E0
8,201076168E0;-3,904161453E0;7,277009010E0;5,486433983E0
8,299752002E0;-2,055170536E0;5,290817738E0;1,254984379E0
8,398443289E0;9,560877681E-1;-2,980639458E0;-1,888034344E-1
8,497125126E0;-1,782595754E0;-8,163168907E0;3,376038790E0
8,595803309E0;-2,123979807E0;5,253172398E0;8,957579613E0
8,694485279E0;5,469881296E-1;-3,187658310E0;-4,625866413E0
8,793137259E0;1,687434435E0;2,122790337E0;1,225808978E0
8,891833245E0;-1,007566452E-1;2,579860687E-1;-4,597929955E0
8,990526037E0;5,477808952E0;-3,053436279E0;-2,161796570E0
9,089206500E0;2,320831776E0;-3,360207558E0;-3,920848846E0
9,187888998E0;-7,512394905E0;-6,881384850E0;3,730734348E0
9,286551679E0;-1,115483761E0;1,019241333E0;1,495810509E0
9,385243994E0;-3,183388710E0;7,096120358E0;4,242366791E0
9,483925942E0;-1,670260310E0;4,823212147E0;1,102650166E-1
9,582595123E0;1,256022215E0;-1,837640762E0;-1,185901642E0
9,681288079E0;-4,505096912E0;-5,960196495E0;6,756467819E0
9,779943090E0;-1,925312281E-1;1,629096985E0;7,730977058E0
9,878640551E0;2,152233362E0;-4,679718018E-1;-3,101325274E0
9,977324076E0;8,743667603E-1;2,115106106E0;8,392584324E-1
1,007600763E1;4,644210339E-1;1,077575684E-1;-5,470439911E0
1,017468806E1;5,078611851E0;-2,781416893E0;-1,916509151E0
1,027334301E1;3,676091194E0;-3,209468842E0;-3,024797440E0
1,037204483E1;-6,663253784E0;-5,937926292E0;5,095704198E-1
1,047071521E1;-2,520168781E0;6,120033264E-1;-7,019953728E-1
1,056939534E1;-2,592374086E0;5,569098473E0;4,473960400E0
1,066807443E1;-2,835075378E0;6,005696297E0;8,602395058E-1
1,076675105E1;1,674902797E0;-2,916360855E0;-2,908705950E0
1,086544671E1;-2,854869604E0;-5,075750351E0;6,477056503E0
1,096412542E1;-2,134225130E0;5,210966587E0;7,784026623E0
1,106280479E1;8,520630598E-1;-4,009985924E0;-8,824017644E-1
1,116148507E1;9,667308331E-1;2,986147404E0;1,482326984E0
1,126015443E1;2,243520021E0;-1,664097786E0;-5,704696655E0
1,135884562E1;4,207146645E0;-2,551000595E0;-1,604473352E0
1,145752576E1;4,280220985E0;-3,006632805E0;-2,929459333E0
1,155620582E1;-8,515645981E0;-8,749074936E0;6,506711483E0
1,165488457E1;3,797475100E0;-9,778280258E-1;5,511910915E0
1,175355502E1;-2,903592110E0;9,079225540E0;5,003809929E0
1,185224791E1;-3,323523104E-1;2,580259323E0;-1,663573265E0
1,195092693E1;7,324187756E-1;1,008668900E0;-7,535550594E-1
1,204960365E1;-6,907653332E0;-3,295135498E-1;2,480254173E0
1,214827434E1;-4,672046900E-1;1,590924263E0;5,827040672E0
1,224695585E1;2,561079979E0;-7,730560303E-1;-1,031905055E0
1,234563324E1;6,663258076E-1;1,248094082E0;5,866121054E-1
1,244430059E1;4,066306114E0;-1,730523109E0;-1,091970205E0
1,254300471E1;4,171529770E0;-3,663304329E0;4,875323772E-1
1,264168766E1;4,825828075E0;-3,265122414E0;-1,541462898E0
1,274034301E1;-9,422431946E0;-5,591278076E0;6,679121017E0
1,283904448E1;5,535185814E0;-4,033079147E-1;5,409278870E0
1,293771447E1;-3,426003456E0;7,806687355E0;4,759552002E0
1,303641555E1;9,498966932E-1;7,521982193E-1;-3,183962584E0
1,313507766E1;1,158374190E0;2,311418056E0;-1,755589247E0
1,323375458E1;-1,003557396E1;-5,997486115E0;-7,943246365E-1
1,333244487E1;-1,288207173E0;-1,463624001E0;3,467993498E0
1,343112915E1;3,398903608E0;-3,556461334E-1;-2,588433623E-1
1,352980601E1;7,178342342E-1;1,613356113E0;-4,492152929E-1
1,362848648E1;3,262308598E0;-1,027739525E0;-1,657034516E0
1,372715222E1;3,880051613E0;-4,247977257E0;-7,173991203E-2
1,382584529E1;5,152173042E0;-2,503385544E0;-1,259928584E0
1,392451133E1;-7,882423401E0;-5,521110535E0;4,058447361E0
1,402319592E1;4,122128487E0;-4,053300858E0;-3,989665508E-1
1,412187374E1;-4,800158501E0;6,960896015E0;5,407009125E0
1,422055388E1;5,039165497E0;-7,195329666E-1;-3,723661423E0
1,431925657E1;2,377562523E0;-1,032156467E0;-7,495541573E-1
1,441792345E1;-2,595545053E0;-7,808465958E0;-2,250813007E0
1,451660760E1;-4,506097317E0;1,813824654E0;1,928093433E0
1,461528527E1;2,931893826E0;-8,635463715E-1;8,156399131E-1
1,471395294E1;4,412680864E-1;-3,867111206E-1;1,341984868E0
1,481264462E1;4,855284095E-1;4,286956787E-1;-1,116913676E0
1,491132541E1;1,380343556E0;5,794044018E0;5,028332472E-1
1,500999239E1;-6,339335442E-2;8,487625122E-1;-1,034605742E0
1,510868519E1;-1,185294867E0;-6,533699989E0;1,123091698E0
1,520735220E1;3,476730585E0;-4,443051338E0;-9,318161607E-1
1,530604375E1;4,121495724E0;-3,535795212E-1;-2,480296135E0
1,540472674E1;-3,170871735E-2;-1,384727478E0;-2,047270060E0
1,550340087E1;-3,861926198E-1;-1,710295677E0;1,454447269E0
1,560208377E1;1,365437269E0;-2,597364426E0;-2,396912575E-1
1,570074936E1;-2,921617985E0;4,108938217E0;3,964388847E0
1,579944405E1;-3,518703222E0;4,990030289E0;2,689438581E0
1,589812376E1;1,079280376E0;1,863162041E0;5,388300419E-1
1,599679149E1;-1,525942326E0;-3,638141632E0;-3,637472630E0
1,609548660E1;-1,253778577E0;1,012655258E0;8,591318130E-1
1,619414966E1;-1,410856247E0;-1,441802979E-1;8,203558922E-1
1,629282392E1;7,270439267E-1;1,562500000E-2;4,219295979E-1
1,639150660E1;2,418879271E0;-7,787933350E-1;-2,432723761E0
1,649020154E1;8,283309937E-1;6,239233017E-1;-1,245409250E-1
1,658887015E1;6,759278774E-1;2,128353119E-1;-4,817681313E-1
1,668754757E1;1,640774012E0;-6,785106659E-2;-2,605465889E0
1,678624029E1;6,092185974E0;-3,801343918E0;-1,633873701E0
1,688492130E1;1,284042835E0;-2,274283409E0;-3,394355297E0
1,698359710E1;-4,412628174E0;-4,108042717E0;-1,458341628E-1
1,708227868E1;-4,971929193E-1;4,366207123E-1;3,091346264E0
1,718094562E1;-1,500431418E0;4,428029060E0;2,927614689E0
1,727963546E1;-1,638667345E0;4,019605160E0;4,018416405E-1
1,737831849E1;1,768809080E0;-2,249538422E0;7,168166637E-1
1,747701987E1;-1,628353834E0;-2,626517296E0;-1,557163596E0
1,757566418E1;-4,364134789E0;5,819689274E0;-9,933530688E-1
1,767434298E1;-1,086924076E-1;-2,601853371E0;1,130301237E0
1,777303560E1;7,757949829E-1;1,840807438E0;2,073710680E0
1,787171799E1;-1,145205498E-1;1,051309586E0;-1,616987467E0
1,797039434E1;3,696274996E0;-8,337879181E-1;-1,956110358E0
1,806907923E1;4,165590763E0;-2,735035896E0;-1,045624018E0
1,816774044E1;2,360182524E0;-3,073221207E0;-1,026779413E-2
1,826642998E1;-6,621353626E0;-2,699878693E0;7,633752227E-1
1,836511182E1;2,611836195E-1;8,521080017E-2;2,167550325E0
1,846379131E1;-3,497628689E0;7,461879730E0;3,231836319E0
1,856246998E1;3,141367435E-1;1,142712593E0;-9,121688604E-1
1,866113681E1;1,407352686E0;-6,073083878E-1;-2,512269020E0
1,875983393E1;-1,686860323E0;-6,900195122E0;2,881397247E0
1,885850653E1;-4,166914821E-1;1,297725677E0;7,700868130E0
1,895718571E1;-1,862333059E0;-9,193067551E-1;-6,765879393E-1
1,905585408E1;2,788520813E0;1,683489323E0;-4,442802072E-1
1,915453291E1;2,542195797E0;3,075023174E0;-2,415320158E0
1,925321194E1;8,350006342E-1;2,012950420E0;8,165892959E-2
1,935190311E1;3,204644442E0;8,510065079E-1;-2,012371063E0
1,945057951E1;-3,491024971E0;-1,072175026E1;1,866617680E0
1,954925511E1;-3,052115440E0;3,402881622E-1;1,191948891E0
1,964792931E1;-2,621204376E0;6,345526695E0;3,836297989E-1
1,974661632E1;1,810829401E0;-1,699796677E0;-1,874869108E0
1,984529623E1;2,042313337E0;1,949463844E0;-3,531359196E0
1,994397978E1;-3,316665173E0;-5,374221802E0;5,442834854E0
2,004264722E1;4,191082954E0;-2,055509567E0;1,176663399E0
2,014132278E1;2,156166792E0;1,687034607E0;6,616216898E-1
2,024001500E1;1,382246971E0;2,277474403E0;-9,948092103E-1
2,033871462E1;1,133980036E0;1,134014130E-1;1,551775932E-1
2,043737323E1;-2,290677071E0;-1,085759544E1;1,713885307E0
2,053605460E1;-6,196483374E-1;4,868418694E0;2,601708889E0
2,063472022E1;-1,612203121E-1;6,259951591E0;-1,695264459E0
2,073340490E1;5,379004002E0;-7,253036499E-1;3,173120022E0
2,083209146E1;-3,794420958E-1;-1,034223557E0;-1,625084162E0
2,093075784E1;-3,306014061E0;-1,138460541E1;4,674825191E0
2,102943715E1;-2,000973225E0;5,473089218E-1;5,334694386E-1
2,112810839E1;1,532348871E0;2,535412312E0;-1,421883702E0
2,122680810E1;2,708563805E0;1,890037060E0;-1,722425222E-1
2,132548448E1;3,360756159E0;-2,868831635E0;-1,677651167E0
2,142416552E1;-7,246522903E0;-1,718873024E0;6,053538322E-1
2,152284549E1;-6,768487692E-1;4,621317863E0;9,050508738E-1
2,162151001E1;1,519998312E0;2,165228367E0;-1,141166210E0
2,172020337E1;4,408079624E0;1,532649994E0;1,734264374E0
2,181888104E1;-3,578192711E0;-6,651249886E0;2,010152340E0
2,191755913E1;1,047683001E0;-6,230307579E0;3,519751787E0
2,201623674E1;-1,202668309E0;1,174921989E0;1,884232163E-1
2,211490453E1;3,624879360E0;4,237829208E0;-9,556503296E-1
2,221358810E1;1,988565564E0;1,069177628E0;-2,120650291E0
2,231227512E1;4,728569031E0;-9,724857330E0;-6,432013988E0
2,241095396E1;-7,958601475E0;1,668126106E0;2,589306355E0
2,250960929E1;-3,366230428E-1;7,122915268E0;2,296914101E0
2,260829802E1;-2,936969995E-1;-1,961430550E0;-3,476284146E-1
2,270698114E1;2,834995031E0;2,992171764E0;-1,404839516E0
2,280566853E1;-1,402117133E0;-5,655674934E0;-2,634669304E0
2,290434932E1;4,385217667E0;-2,708390236E0;3,462281227E0
2,300302882E1;-1,796518922E0;-1,035281181E0;1,504060030E0
2,310168410E1;5,863484859E0;7,457637787E-2;-2,367630482E0
2,320038208E1;-5,070853710E0;1,230742455E0;-5,025720596E-1
2,329906490E1;-3,860579014E0;1,108204842E0;3,711013079E0
2,339774032E1;5,848481059E-1;-8,693967819E0;8,055239916E-2
2,349641958E1;2,078874350E0;6,076699734E0;-2,680404186E0
2,359507746E1;-1,793647289E0;-5,678432465E0;2,354653358E0
2,367527589E1;2,682874203E0;-1,244524002E0;3,228344202E0
2,375750799E1;3,331150532E0;-1,907264709E0;-2,400589585E-1
2,385750799E1;0,000000000E0;0,000000000E0;0,000000000E0
2,395750799E1;0,000000000E0;0,000000000E0;0,000000000E0
2,405750799E1;-5,361445427E0;-2,483866692E0;-1,513944626E0
2,415750799E1;-5,361445427E0;-2,483866692E0;-1,513944626E0
2,425750799E1;-5,361445427E0;-2,483866692E0;-1,513944626E0
2,435750799E1;-2,530186176E0;2,170842648E0;-1,410531998E0
2,445750799E1;1,675892353E0;-1,251275063E0;3,566687107E0
2,455750799E1;1,675892353E0;-1,251275063E0;3,566687107E0
2,465750799E1;1,675892353E0;-1,251275063E0;3,566687107E0
2,475750799E1;-3,928459644E0;-1,063957214E0;2,268726826E-1
2,485750799E1;-3,928459644E0;-1,063957214E0;2,268726826E-1
2,495750799E1;-3,928459644E0;-1,063957214E0;2,268726826E-1
2,505750799E1;-9,570777416E-1;8,706722260E-1;1,062106490E0
2,515750799E1;-6,182947636E0;-1,715070724E0;-1,836296618E-1
2,525750799E1;1,669291377E0;-3,663806915E0;2,821384668E0
2,535750799E1;-1,614153385E0;8,872261047E-1;-2,879087925E0
2,545750799E1;3,303938389E0;1,233882904E0;7,649990320E-1
2,555750799E1;3,735611916E0;-3,390785217E0;-8,408777714E-1
2,565750799E1;4,936181545E0;-1,446945190E0;-1,891418219E0
2,575750799E1;-8,389736176E0;-5,753154755E0;-3,302862167E0
2,585750799E1;-5,085245371E-1;4,972572327E-1;6,748443246E-1
2,595750799E1;-2,617257357E0;5,853381157E0;2,983969688E0
2,605750799E1;-1,447462320E0;5,115951061E0;1,234680653E0
2,615750799E1;3,910512209E0;-5,885670662E0;-2,185696125E0
2,625750799E1;-1,562371969E0;-2,177845001E0;-2,908522367E0
2,635750799E1;-6,994127274E0;5,504192829E0;5,146505237E-1
2,645750799E1;-2,025135756E0;-2,600148201E0;1,752866209E-1
2,655750799E1;1,480398059E0;8,950204849E-1;-8,289944530E-1
2,665750799E1;8,297954798E-1;3,058967590E-1;-7,173492908E-1
2,675750799E1;2,125431061E0;-9,089593887E-1;-2,874944925E0
2,685750799E1;3,815662622E0;-2,113430023E0;-9,722747803E-1
2,695750799E1;1,899298906E0;-2,949213028E0;-4,204798698E0
2,705750799E1;-6,328934669E0;-5,431427002E0;3,108385086E0
2,715750799E1;4,244963646E0;-4,302530289E-1;4,879866123E0
2,725750799E1;-2,223056793E0;5,172912121E0;4,163570404E0
2,735750799E1;-1,428615808E0;2,949672222E0;-7,985949516E-3
2,745750799E1;5,294666767E0;-4,888167381E0;-4,118721485E0
2,755750799E1;1,147297859E0;-2,467000008E0;-9,155945778E-1
2,765750799E1;1,147297859E0;-2,467000008E0;-9,155945778E-1
2,775750799E1;1,147297859E0;-2,467000008E0;-9,155945778E-1
2,785750799E1;1,147297859E0;-2,467000008E0;-9,155945778E-1
2,795750799E1;1,147297859E0;-2,467000008E0;-9,155945778E-1
2,805750799E1;1,147297859E0;-2,467000008E0;-9,155945778E-1
2,815750799E1;1,147297859E0;-2,467000008E0;-9,155945778E-1
2,825750799E1;1,147297859E0;-2,467000008E0;-9,155945778E-1
2,835750799E1;1,147297859E0;-2,467000008E0;-9,155945778E-1
2,845750799E1;1,147297859E0;-2,467000008E0;-9,155945778E-1
2,855750799E1;1,147297859E0;-2,467000008E0;-9,155945778E-1
2,865750799E1;1,147297859E0;-2,467000008E0;-9,155945778E-1
2,875750799E1;1,147297859E0;-2,467000008E0;-9,155945778E-1
2,885750799E1;1,147297859E0;-2,467000008E0;-9,155945778E-1
2,895750799E1;1,147297859E0;-2,467000008E0;-9,155945778E-1
2,905750799E1;1,147297859E0;-2,467000008E0;-9,155945778E-1
2,915750799E1;1,147297859E0;-2,467000008E0;-9,155945778E-1
2,925750799E1;1,147297859E0;-2,467000008E0;-9,155945778E-1
2,935750799E1;1,147297859E0;-2,467000008E0;-9,155945778E-1
2,945750799E1;1,147297859E0;-2,467000008E0;-9,155945778E-1
2,955750799E1;1,147297859E0;-2,467000008E0;-9,155945778E-1
2,965750799E1;1,147297859E0;-2,467000008E0;-9,155945778E-1
2,975750799E1;1,794027209E0;-1,899407387E0;-1,020395994E0
2,985750799E1;1,794027209E0;-1,899407387E0;-1,020395994E0
2,995750799E1;-1,951898336E-1;-1,333336830E0;5,794346333E-1
3,005750799E1;-2,180327415E0;-2,134407997E0;-2,663292885E-1
3,015750799E1;-3,318837881E-1;1,827568054E0;8,344283104E-1
3,025750799E1;9,881751537E-1;4,675489426E0;-4,728126526E-2
3,035750799E1;4,188235998E-1;-1,054454803E0;8,784613609E-1
3,045750799E1;-1,926405907E0;-2,301755905E0;-6,801866055E0
3,055750799E1;-7,463187695E0;6,923913002E0;6,443652630E0
3,065750799E1;1,149882197E0;-1,351588249E0;8,718593121E-1
3,075750799E1;1,286163807E0;1,288337708E-1;-1,931047678E0
3,085750799E1;6,009538174E-1;-2,281856537E-2;9,579397440E-1
3,095750799E1;-2,356674671E-1;-3,391361237E-1;-1,863809943E0
3,105750799E1;3,263090611E0;-2,168286324E0;-1,248204708E0
3,115750799E1;2,154970646E0;-2,545744896E0;-2,791901112E0
3,125750799E1;2,381301165E0;-2,899184227E0;8,019633293E-1
3,135750799E1;-5,122682095E0;-3,745832443E0;-1,180337906E0
3,145750799E1;-2,193404675E0;2,123709679E0;1,067085028E0
3,155750799E1;-3,420202494E0;7,741641045E0;2,891730785E0
3,165750799E1;6,996280193E0;-7,390938759E0;-5,299577713E0
3,175750799E1;2,350569963E0;4,746278286E0;1,249647141E-2
3,185750799E1;-8,659220695E0;7,073799133E0;5,741090775E-1
3,195750799E1;-9,294240475E-1;-6,427181244E0;4,262660503E0
3,205750799E1;2,755500793E0;8,902511597E-1;-2,007257938E0
3,215750799E1;1,102979898E0;1,075063705E0;-1,671549797E0
3,225750799E1;4,001523018E0;-1,197200775E0;8,753616810E-1
3,235750799E1;1,317308664E0;-3,155645370E0;-2,289899111E0
3,245750799E1;5,586703777E0;-1,942893982E0;-5,477982759E-2
3,255750799E1;-6,319076061E0;-3,242792130E0;1,459277034E0
3,265750799E1;1,724192619E0;-8,254194260E-1;-3,783851862E-1
3,275750799E1;-4,585883141E0;8,307273865E0;4,999835014E0
3,285750799E1;2,054270506E0;-2,532078743E0;-4,636110306E0
3,295750799E1;4,075216770E0;3,462867737E-1;-4,316267014E0
3,305750799E1;-8,552036285E0;6,553014755E0;5,117898941E0
3,315750799E1;-3,526491225E-1;-5,796889305E0;4,157258511E0
3,325750799E1;2,969902515E0;2,497596741E-1;6,407007575E-1
3,335750799E1;7,371331453E-1;2,000884056E0;-5,785466433E-1
3,345750799E1;2,047703028E0;-1,984377861E0;-5,184336662E0
3,355750799E1;4,110845566E0;-2,051637650E0;-1,196985483E0
3,365750799E1;4,877388954E0;-2,657221794E0;-1,922241688E0
3,375750799E1;-7,011158466E0;-7,460525513E0;5,402618408E0
3,385750799E1;3,586030006E0;-4,694070816E-1;5,947298050E0
3,395750799E1;-3,155402899E0;7,904473305E0;3,889679909E0
3,405750799E1;1,064807415E0;1,027173042E0;-2,898310423E0
3,415750799E1;1,505892277E0;2,415241241E0;-1,972653627E0
3,425750799E1;-5,703959942E0;-2,960742950E0;9,801080227E-1
3,435750799E1;-5,911307931E-1;-1,920393944E0;3,496536970E0
3,445750799E1;3,419361591E0;9,080753326E-1;-1,863492131E0
3,455750799E1;1,694193602E0;2,312122822E0;6,700062752E-2
3,465750799E1;1,210537791E0;-1,555367470E0;-5,982143402E0
3,475750799E1;4,546960354E0;-3,236313820E0;-9,991862774E-1
3,485750799E1;5,126264572E0;-1,393038750E0;-3,857939243E0
3,495750799E1;-4,764028072E0;-8,487242699E0;8,009697914E0
3,505750799E1;3,361613274E0;-1,894246101E0;4,367979050E0
3,515750799E1;3,361613274E0;-1,894246101E0;4,367979050E0
3,525750799E1;3,361613274E0;-1,894246101E0;4,367979050E0
3,535750799E1;3,361613274E0;-1,894246101E0;4,367979050E0
3,545750799E1;3,361613274E0;-1,894246101E0;4,367979050E0
3,555750799E1;3,361613274E0;-1,894246101E0;4,367979050E0
3,565750799E1;3,361613274E0;-1,894246101E0;4,367979050E0
3,575750799E1;3,361613274E0;-1,894246101E0;4,367979050E0
3,585750799E1;3,361613274E0;-1,894246101E0;4,367979050E0
3,595750799E1;3,361613274E0;-1,894246101E0;4,367979050E0
3,605750799E1;3,361613274E0;-1,894246101E0;4,367979050E0
3,615750799E1;3,361613274E0;-1,894246101E0;4,367979050E0
3,625750799E1;3,361613274E0;-1,894246101E0;4,367979050E0
3,635750799E1;3,361613274E0;-1,894246101E0;4,367979050E0
3,645750799E1;3,361613274E0;-1,894246101E0;4,367979050E0
3,655750799E1;3,361613274E0;-1,894246101E0;4,367979050E0
3,665750799E1;3,361613274E0;-1,894246101E0;4,367979050E0
3,675750799E1;3,361613274E0;-1,894246101E0;4,367979050E0
3,685750799E1;3,361613274E0;-1,894246101E0;4,367979050E0
3,695750799E1;3,361613274E0;-1,894246101E0;4,367979050E0
3,705750799E1;3,361613274E0;-1,894246101E0;4,367979050E0
3,715750799E1;3,361613274E0;-1,894246101E0;4,367979050E0
3,725750799E1;3,361613274E0;-1,894246101E0;4,367979050E0
3,735750799E1;3,361613274E0;-1,894246101E0;4,367979050E0
3,745750799E1;-3,767900467E0;7,921603680E0;5,097316742E0
3,755750799E1;-3,767900467E0;7,921603680E0;5,097316742E0
3,765750799E1;2,718861103E0;2,554397583E-1;9,531018734E-1
3,775750799E1;-3,940618515E0;-6,605861664E0;5,334707260E0
3,785750799E1;-1,537010670E0;2,150724411E0;7,509836674E0
3,795750799E1;1,004841805E0;-2,976272583E0;-5,185274601E0
3,805750799E1;1,170268774E0;2,862080097E0;1,423280239E0
3,815750799E1;-3,735337257E-1;-5,148277283E-1;-3,911967754E0
3,825750799E1;4,351140976E0;-1,157558441E0;-1,093030930E0
3,835750799E1;5,989815712E0;-3,429023743E0;-3,024609089E0
3,845750799E1;-7,984737396E0;-7,593256950E0;1,420436144E0
3,855750799E1;8,615390062E-1;-1,846203804E0;2,168368101E0
3,865750799E1;-3,718998432E0;6,656871796E0;4,228586197E0
3,875750799E1;-3,460422993E0;4,256896496E0;1,451782107E0
3,885750799E1;4,214784622E0;-4,395128250E0;-3,447981358E0
3,895750799E1;-2,255439043E0;-2,439044952E0;-1,235395670E0
3,905750799E1;-4,787174225E0;4,414723873E0;2,452887535E0
3,915750799E1;1,075350761E0;-3,516843796E0;4,608748853E-1
3,925750799E1;2,878086567E0;1,302694321E0;2,330888748E0
3,935750799E1;-2,476410866E-1;6,555080414E-2;-2,690454721E0
3,945750799E1;3,814053535E0;-1,466491699E0;2,470819950E-1
3,955750799E1;3,940910101E0;-3,871385574E0;-1,325832605E0
3,965750799E1;1,186543703E-1;-1,996582985E0;-2,413860083E0
3,975750799E1;-7,596433163E-1;-1,803790092E0;-5,845683217E-1
3,985750799E1;-2,749081135E0;1,264381409E-1;2,306071281E0
3,995750799E1;-3,234161854E0;6,559106350E0;3,279331446E0
4,005750799E1;4,901795387E0;-2,868937492E0;-5,653586388E0
4,015750799E1;1,852058887E0;2,038202286E0;-3,750583649E0
4,025750799E1;-6,017051220E0;-5,874642372E0;9,887787104E-1
4,035750799E1;-2,659090757E-1;6,935577393E-1;6,463904858E0
4,045750799E1;3,356123686E0;-4,923305511E-1;-4,057169914E0
4,055750799E1;9,779143333E-2;1,390887260E0;-1,641007066E0
4,065750799E1;1,561959863E0;-4,742650986E-1;-2,680531740E0
4,075750799E1;4,717432022E0;-1,537632942E0;-1,574539900E0
4,085750799E1;5,261530876E0;-2,317520142E0;-3,543552399E0
4,095750799E1;-6,761717319E0;-7,654535294E0;3,865406990E0
4,105750799E1;2,980662823E0;-5,262613297E-1;3,187919378E0
4,115750799E1;-3,867779732E0;6,051809311E0;3,739543676E0
4,125750799E1;-3,109629631E0;4,149240494E0;1,131338239E0
4,135750799E1;4,449941635E0;-4,152698517E0;-2,717472553E0
4,145750799E1;-1,225854158E0;-3,872488976E0;-1,973565578E0
4,155750799E1;-3,350695372E0;4,947646618E0;2,643241644E0
4,165750799E1;2,897199392E-1;-2,857263565E0;-3,810192943E-1
4,175750799E1;2,249877930E0;1,839088440E0;1,388345122E0
4,185750799E1;-5,110707283E-1;1,130609512E-1;-3,312539101E0
4,195750799E1;5,380407810E0;-1,823735237E0;-6,885714531E-1
4,205750799E1;4,182215691E0;-3,810043335E0;-2,424755573E0
4,215750799E1;-1,535137653E0;-2,661236763E0;-4,119458050E-2
4,225750799E1;-2,299196243E0;-2,894205093E0;-1,657330275E0
4,235750799E1;-3,322199106E0;3,722290039E0;2,298679352E0
4,245750799E1;-4,817729950E0;5,944106102E0;1,337033033E0
4,255750799E1;6,788457394E0;-4,052955627E0;-2,842745066E0
4,265750799E1;6,788457394E0;-4,052955627E0;-2,842745066E0
4,275750799E1;6,788457394E0;-4,052955627E0;-2,842745066E0
4,285750799E1;6,788457394E0;-4,052955627E0;-2,842745066E0
4,295750799E1;6,788457394E0;-4,052955627E0;-2,842745066E0
4,305750799E1;6,788457394E0;-4,052955627E0;-2,842745066E0
4,315750799E1;6,788457394E0;-4,052955627E0;-2,842745066E0
4,325750799E1;6,788457394E0;-4,052955627E0;-2,842745066E0
4,335750799E1;6,788457394E0;-4,052955627E0;-2,842745066E0
4,345750799E1;6,788457394E0;-4,052955627E0;-2,842745066E0
4,355750799E1;6,788457394E0;-4,052955627E0;-2,842745066E0
4,365750799E1;6,788457394E0;-4,052955627E0;-2,842745066E0
4,375750799E1;6,788457394E0;-4,052955627E0;-2,842745066E0
4,385750799E1;6,788457394E0;-4,052955627E0;-2,842745066E0
4,395750799E1;6,788457394E0;-4,052955627E0;-2,842745066E0
4,405750799E1;6,788457394E0;-4,052955627E0;-2,842745066E0
4,415750799E1;6,788457394E0;-4,052955627E0;-2,842745066E0
4,425750799E1;6,788457394E0;-4,052955627E0;-2,842745066E0
4,435750799E1;6,788457394E0;-4,052955627E0;-2,842745066E0
4,445750799E1;6,788457394E0;-4,052955627E0;-2,842745066E0
4,455750799E1;6,788457394E0;-4,052955627E0;-2,842745066E0
4,465750799E1;6,788457394E0;-4,052955627E0;-2,842745066E0
4,475750799E1;6,788457394E0;-4,052955627E0;-2,842745066E0
4,485750799E1;8,699576378E0;-9,486474037E0;-5,884123802E0
4,495750799E1;8,699576378E0;-9,486474037E0;-5,884123802E0
4,505750799E1;-5,635074615E0;4,964800358E0;5,058875084E0
4,515750799E1;2,091612339E0;-3,950666428E0;-4,060291648E-1
4,525750799E1;1,860955000E0;1,595929623E0;1,921834946E-1
4,535750799E1;3,053548336E-1;1,856908798E-1;-2,980857372E0
4,545750799E1;6,264481544E0;-2,444013596E0;6,750633717E-1
4,555750799E1;3,290976286E0;-4,181047440E0;-4,197321892E0
4,565750799E1;-3,784717560E0;-3,904930115E0;-3,892217875E0
4,575750799E1;-4,347425461E0;-3,492323875E0;-4,816448212E0
4,585750799E1;-4,214869022E0;4,968743801E0;1,850863814E0
4,595750799E1;-4,127859116E0;6,165444374E0;1,715482950E0
4,605750799E1;6,874619007E0;-7,391055107E0;-5,581260204E0
4,615750799E1;-7,997074127E-1;-1,525497437E-2;1,690770626E0
4,625750799E1;-4,770025730E0;1,491218567E0;2,128263474E0
4,635750799E1;1,530403018E0;-3,276766777E0;3,443464041E0
4,645750799E1;2,183626652E0;2,624074459E0;1,859450698E0
4,655750799E1;1,074492216E0;-2,875242233E-1;-3,037660599E0
4,665750799E1;4,721140862E0;-1,171836853E0;1,230187416E-1
4,675750799E1;4,091745377E0;-3,358205795E0;-1,891271234E0
4,685750799E1;-3,074487448E0;-2,783816338E0;-1,149865031E0
4,695750799E1;-3,187573195E0;-2,862435341E0;-1,471165895E0
4,705750799E1;-2,676283360E0;4,184663773E0;2,073472500E0
4,715750799E1;-4,624628544E0;6,897050858E0;2,210929155E0
4,725750799E1;1,153591251E1;-1,203454399E1;-4,316221714E0
4,735750799E1;6,193240285E-1;-1,409568787E-1;-1,994549751E0
4,745750799E1;-9,223352432E0;3,563067913E0;-1,189195752E0
4,755750799E1;1,627062559E0;-4,776932716E0;4,398021221E0
4,765750799E1;2,688351870E0;1,927607059E0;1,333845735E0
4,775750799E1;-2,102162838E-1;5,061740875E-1;-1,121784449E0
4,785750799E1;5,106420517E0;-1,516523361E-1;2,548091412E-1
4,795750799E1;3,331281185E0;-2,901769638E0;-1,707329512E0
4,805750799E1;3,729786634E0;-2,154479027E0;3,750051260E-1
4,815750799E1;-6,603477955E0;-4,808149338E0;2,112725735E0
4,825750799E1;2,913326502E0;2,944202423E-1;3,257188797E0
4,835750799E1;-4,623149395E0;8,466600418E0;3,882543325E0
4,845750799E1;8,952231407E0;-7,195672989E0;-8,929370880E0
4,855750799E1;4,914935827E-1;6,171908379E0;-2,803750753E0
4,865750799E1;-3,461711884E0;-4,084388733E0;1,181446671E0
4,875750799E1;4,732151330E-1;-3,319945335E0;5,550274849E0
4,885750799E1;3,623680115E0;1,677298069E0;-7,402960062E-1
4,895750799E1;4,714499712E-1;2,014179230E-1;-1,281329870E0
4,905750799E1;4,044097900E0;4,529972076E-1;-7,272381783E-1
4,915750799E1;5,120401382E0;-2,810590744E0;-1,577064633E0
4,925750799E1;1,961364865E0;-1,880636215E0;8,423614502E-1
4,935750799E1;-4,740880489E0;-3,838349342E0;-7,297323942E-1
4,945750799E1;1,374830365E0;5,668611526E-1;2,168947935E0
4,955750799E1;-4,459067822E0;8,266746521E0;3,995849133E0
4,965750799E1;5,264914989E0;-5,404437065E0;-7,836235046E0
4,975750799E1;6,327339411E-1;4,023159027E0;-5,001450539E0
4,985750799E1;-3,712572336E0;-7,893482208E0;2,964044571E0
4,995750799E1;-2,506647706E-1;-2,903288841E0;5,409482002E0
5,005750799E1;-2,506647706E-1;-2,903288841E0;5,409482002E0
5,015750799E1;-2,506647706E-1;-2,903288841E0;5,409482002E0
5,025750799E1;-2,506647706E-1;-2,903288841E0;5,409482002E0
5,035750799E1;-2,506647706E-1;-2,903288841E0;5,409482002E0
5,045750799E1;-2,506647706E-1;-2,903288841E0;5,409482002E0
5,055750799E1;-2,506647706E-1;-2,903288841E0;5,409482002E0
5,065750799E1;-2,506647706E-1;-2,903288841E0;5,409482002E0
5,075750799E1;-2,506647706E-1;-2,903288841E0;5,409482002E0
5,085750799E1;-2,506647706E-1;-2,903288841E0;5,409482002E0
5,095750799E1;-2,506647706E-1;-2,903288841E0;5,409482002E0
5,105750799E1;-2,506647706E-1;-2,903288841E0;5,409482002E0
5,115750799E1;-2,506647706E-1;-2,903288841E0;5,409482002E0
5,125750799E1;-2,506647706E-1;-2,903288841E0;5,409482002E0
5,135750799E1;-2,506647706E-1;-2,903288841E0;5,409482002E0
5,145750799E1;-2,506647706E-1;-2,903288841E0;5,409482002E0
5,155750799E1;-2,506647706E-1;-2,903288841E0;5,409482002E0
5,165750799E1;-2,506647706E-1;-2,903288841E0;5,409482002E0
5,175750799E1;-2,506647706E-1;-2,903288841E0;5,409482002E0
5,185750799E1;-2,506647706E-1;-2,903288841E0;5,409482002E0
5,195750799E1;-2,506647706E-1;-2,903288841E0;5,409482002E0
5,205750799E1;-2,506647706E-1;-2,903288841E0;5,409482002E0
5,215750799E1;-2,506647706E-1;-2,903288841E0;5,409482002E0
5,225750799E1;-4,668484211E0;-4,779117584E0;-4,379873276E-1
5,235750799E1;-4,668484211E0;-4,779117584E0;-4,379873276E-1
5,245750799E1;3,807136059E0;6,381807327E-1;-4,640579224E-2
5,255750799E1;8,085203171E-1;1,237864494E0;-1,185151100E0
5,265750799E1;2,147411823E0;-1,335286140E0;-2,537152767E0
5,275750799E1;4,735466003E0;-2,147206306E0;-1,978254080E0
5,285750799E1;5,291084290E0;-1,410408974E0;-4,048526287E0
5,295750799E1;-4,201457024E0;-6,927168846E0;2,885528803E0
5,305750799E1;-1,854126453E0;-6,849088669E-1;1,554274559E-1
5,315750799E1;-3,880733967E0;5,787005901E0;3,297152758E0
5,325750799E1;-2,999648333E0;3,764969826E0;5,101153851E-1
5,335750799E1;3,813763618E0;-2,573749542E0;-4,334225655E-1
5,345750799E1;-2,943337917E0;-5,643729210E0;2,595306635E0
5,355750799E1;-2,441219330E0;5,644571304E0;6,376622200E0
5,365750799E1;1,378023744E0;-4,092775345E0;-5,204857826E0
5,375750799E1;1,896674514E0;2,021465302E0;8,579874039E-1
5,385750799E1;-2,039287090E-1;-8,890333176E-1;-6,000567436E0
5,395750799E1;5,933901787E0;-1,124552727E0;-1,360129833E0
5,405750799E1;7,017830849E0;-2,405337334E0;-4,481428623E0
5,415750799E1;-5,985235691E0;-1,099318886E1;1,052439117E1
5,425750799E1;3,092530251E0;-1,194419861E0;6,311556339E0
5,435750799E1;-3,235643625E0;8,632782936E0;3,822429895E0
5,445750799E1;-1,413976431E0;1,557448387E0;-1,762657166E0
5,455750799E1;2,551800966E0;1,875389576E0;-3,632352352E-1
5,465750799E1;-4,832360744E0;-9,839634895E0;-6,307148933E-1
5,475750799E1;-1,363799214E0;2,238118649E0;5,895536900E0
5,485750799E1;2,223057985E0;-1,180238724E-1;-3,600497246E0
5,495750799E1;1,645627260E0;2,157858849E0;3,723173141E-1
5,505750799E1;3,799723625E0;-2,125898361E0;-6,037757874E0
5,515750799E1;5,337736130E0;-2,509412766E0;-2,431695938E0
5,525750799E1;3,658286572E0;-4,174427986E0;-8,587615490E-1
5,535750799E1;-6,430345058E0;-5,763230324E0;2,228743553E0
5,545750799E1;1,449684978E0;-3,065872192E-1;3,675581932E0
5,555750799E1;-3,758847237E0;9,386298180E0;5,038842201E0
5,565750799E1;3,029139996E0;-4,107287407E0;-6,559855461E0
5,575750799E1;1,641113758E-1;5,337468147E0;-4,995549202E0
5,585750799E1;-3,653694391E0;-4,663886070E0;9,647646546E-1
5,595750799E1;-1,337806225E0;-2,302574158E0;4,619695663E0
5,605750799E1;4,508518219E0;6,990137100E-1;-3,568537235E0
5,615750799E1;1,148106098E0;8,052158356E-1;7,364436388E-1
5,625750799E1;3,198857546E0;-2,180081367E0;-4,852594376E0
5,635750799E1;6,310528755E0;-2,736699104E0;-1,155303717E0
5,645750799E1;5,210250854E0;-2,629308701E0;7,810168266E-1
5,655750799E1;-9,479059219E0;-6,400993347E0;-5,316940546E-1
5,665750799E1;2,491270065E0;9,433336258E-1;3,011590004E0
5,675750799E1;-4,557388306E0;9,342345238E0;4,735821724E0
5,685750799E1;9,033479691E0;-7,725284576E0;-6,840288162E0
5,695750799E1;-2,903182507E-1;3,277505875E0;-3,838203669E0
5,705750799E1;-1,118910313E1;5,476925373E0;-1,558007240E0
5,715750799E1;1,478523254E0;-5,901749611E0;4,793485641E0
5,725750799E1;3,757314205E0;-7,170677185E-3;5,358090401E-1
5,735750799E1;5,698404312E-1;1,077910423E0;-1,054608107E0
5,745750799E1;5,283424377E0;3,167657852E-1;-2,600300312E-1
5,755750799E1;5,283424377E0;3,167657852E-1;-2,600300312E-1
5,765750799E1;5,283424377E0;3,167657852E-1;-2,600300312E-1
5,775750799E1;5,283424377E0;3,167657852E-1;-2,600300312E-1
5,785750799E1;5,283424377E0;3,167657852E-1;-2,600300312E-1
5,795750799E1;5,283424377E0;3,167657852E-1;-2,600300312E-1
5,805750799E1;5,283424377E0;3,167657852E-1;-2,600300312E-1
5,815750799E1;5,283424377E0;3,167657852E-1;-2,600300312E-1
5,825750799E1;5,283424377E0;3,167657852E-1;-2,600300312E-1
5,835750799E1;5,283424377E0;3,167657852E-1;-2,600300312E-1
5,845750799E1;5,283424377E0;3,167657852E-1;-2,600300312E-1
5,855750799E1;5,283424377E0;3,167657852E-1;-2,600300312E-1
5,865750799E1;5,283424377E0;3,167657852E-1;-2,600300312E-1
5,875750799E1;5,283424377E0;3,167657852E-1;-2,600300312E-1
5,885750799E1;5,283424377E0;3,167657852E-1;-2,600300312E-1
5,895750799E1;5,283424377E0;3,167657852E-1;-2,600300312E-1
5,905750799E1;5,283424377E0;3,167657852E-1;-2,600300312E-1
5,915750799E1;5,283424377E0;3,167657852E-1;-2,600300312E-1
5,925750799E1;5,283424377E0;3,167657852E-1;-2,600300312E-1
5,935750799E1;5,283424377E0;3,167657852E-1;-2,600300312E-1
5,945750799E1;5,283424377E0;3,167657852E-1;-2,600300312E-1
5,955750799E1;5,283424377E0;3,167657852E-1;-2,600300312E-1
5,965750799E1;5,283424377E0;3,167657852E-1;-2,600300312E-1
5,975750799E1;6,014243603E0;-1,529909134E0;-2,583255529E0
5,985750799E1;6,014243603E0;-1,529909134E0;-2,583255529E0
5,995750799E1;-4,958210945E0;-7,101964951E0;1,882970333E-1
6,005750799E1;-2,144701004E0;-5,837945938E-1;-1,892695189E0
6,015750799E1;-4,275522232E0;6,454195499E0;2,951256752E0
6,025750799E1;-4,278215408E0;5,338634014E0;2,105048418E0
6,035750799E1;7,624497414E0;-5,118178368E0;-4,321956635E0
6,045750799E1;9,558246732E-1;-8,604807854E0;2,902207613E0
6,055750799E1;-2,083337545E0;3,120617867E0;1,105424786E1
6,065750799E1;1,827129245E0;-1,460767746E0;-3,081414461E0
6,075750799E1;1,127706647E0;3,200897217E0;7,788347006E-1
6,085750799E1;1,847945571E0;-1,300353050E0;-3,939072609E0
6,095750799E1;5,287899494E0;-3,085886002E0;-2,247778177E0
6,105750799E1;6,890793324E0;-2,447924614E0;-3,124767303E0
6,115750799E1;-7,312931538E0;-8,538883209E0;6,547461510E0
6,125750799E1;5,252474308E0;-4,637079239E-1;6,698705673E0
6,135750799E1;-2,971418381E0;9,273283005E0;5,087812901E0
6,145750799E1;-7,237104177E-1;1,840950012E0;-2,214716673E0
6,155750799E1;2,677032948E-1;1,197881699E0;-3,849389553E-1
6,165750799E1;-2,877901554E0;-6,118764877E0;5,805318832E0
6,175750799E1;-8,499749303E-1;-3,744054794E0;4,612882137E0
6,185750799E1;3,609086037E0;6,161785126E-1;-1,255676746E0
6,195750799E1;6,259353161E-1;8,208274841E-1;-2,115790367E0
6,205750799E1;8,743598938E0;2,395153046E-1;3,352391720E-1
6,215750799E1;3,836324930E0;-1,732684135E0;-6,606306076E0
6,225750799E1;-4,571895123E0;-7,945018768E0;-6,172940731E0
6,235750799E1;-5,234027386E0;-3,822761536E0;-4,923223019E0
6,245750799E1;-4,872741699E0;7,126883507E0;1,343504906E0
6,255750799E1;-4,109488487E0;5,755180359E0;2,857620478E0
6,265750799E1;1,087396336E1;-1,378092194E1;-5,095769882E0
6,275750799E1;2,149111509E0;3,146596432E0;2,424185753E0
6,285750799E1;-3,312014341E0;-5,793960571E0;-4,230116367E0
6,295750799E1;-6,184086800E-1;-1,287535667E0;4,310953617E0
6,305750799E1;3,239230394E0;6,944665909E-1;-4,390045643E0
6,315750799E1;2,362083673E0;1,044379234E0;-3,884191513E-1
6,325750799E1;1,781722546E0;-9,544105530E-1;-4,479500771E0
6,335750799E1;4,048560143E0;-2,122550011E0;-2,185393333E0
6,345750799E1;5,794547081E0;-1,733209610E0;-1,213476062E0
6,355750799E1;-6,911548138E0;-4,444993019E0;2,563572645E0
6,365750799E1;2,799692392E0;1,567268372E0;5,463741779E0
6,375750799E1;-3,450128555E0;8,106019974E0;5,886853218E0
6,385750799E1;2,590261936E0;9,249305725E-2;-4,011569977E0
6,395750799E1;-9,483191967E-1;5,122844696E0;-2,946498632E0
6,405750799E1;-6,328454971E0;-7,836705208E0;4,893058300E0
6,415750799E1;-8,887138963E-1;1,953269958E0;4,354530334E0
6,425750799E1;3,114848375E0;-7,452669144E-1;-4,882550240E0
6,435750799E1;1,511525750E0;2,136543751E0;-8,447635174E-2
6,445750799E1;5,645750046E0;-3,850936890E-1;2,238452911E0
6,455750799E1;4,345944405E0;-2,989102364E0;-2,554222822E0
6,465750799E1;8,675887585E-1;-2,893006325E0;1,602793455E0
6,475750799E1;-6,252247810E0;-5,703490257E0;2,854739428E-1
6,485750799E1;1,622110486E0;1,398560524E0;2,118889332E0
6,495750799E1;1,622110486E0;1,398560524E0;2,118889332E0
6,505750799E1;1,622110486E0;1,398560524E0;2,118889332E0
6,515750799E1;1,622110486E0;1,398560524E0;2,118889332E0
6,525750799E1;1,622110486E0;1,398560524E0;2,118889332E0
6,535750799E1;1,622110486E0;1,398560524E0;2,118889332E0
6,545750799E1;1,622110486E0;1,398560524E0;2,118889332E0
6,555750799E1;1,622110486E0;1,398560524E0;2,118889332E0
6,565750799E1;1,622110486E0;1,398560524E0;2,118889332E0
6,575750799E1;1,622110486E0;1,398560524E0;2,118889332E0
6,585750799E1;1,622110486E0;1,398560524E0;2,118889332E0
6,595750799E1;1,622110486E0;1,398560524E0;2,118889332E0
6,605750799E1;1,622110486E0;1,398560524E0;2,118889332E0
6,615750799E1;1,622110486E0;1,398560524E0;2,118889332E0
6,625750799E1;1,622110486E0;1,398560524E0;2,118889332E0
6,635750799E1;1,622110486E0;1,398560524E0;2,118889332E0
6,645750799E1;1,622110486E0;1,398560524E0;2,118889332E0
6,655750799E1;1,622110486E0;1,398560524E0;2,118889332E0
6,665750799E1;1,622110486E0;1,398560524E0;2,118889332E0
6,675750799E1;1,622110486E0;1,398560524E0;2,118889332E0
6,685750799E1;-7,303880692E0;-1,438460445E1;-5,565366268E0
6,695750799E1;-7,303880692E0;-1,438460445E1;-5,565366268E0
6,705750799E1;-7,303880692E0;-1,438460445E1;-5,565366268E0
6,715750799E1;-3,955543041E0;7,785562992E0;3,147160292E0
6,725750799E1;-3,955543041E0;7,785562992E0;3,147160292E0
6,735750799E1;-3,955543041E0;7,785562992E0;3,147160292E0
6,735750799E1;-2,256946087E0;-1,044861317E1;1,221890450E1
6,755750799E1;1,744458199E0;-9,016885757E-1;-7,177855968E0
6,765750799E1;1,508537650E0;2,769901276E0;-9,671640396E-2
6,775750799E1;4,522313595E0;-9,043264389E-1;-6,992812157E-1
6,785750799E1;5,788427830E0;-3,855011940E0;4,660713673E-1
6,795750799E1;4,766804218E0;-1,917098045E0;1,596606970E-1
6,805750799E1;-6,657598019E0;-6,167404175E0;-1,684340239E0
6,815750799E1;4,092872143E0;8,900003433E-1;5,956516743E0
6,825750799E1;-4,156192780E0;1,040712929E1;5,423104286E0
6,835750799E1;1,061282825E1;-1,323608208E1;-6,078578949E0
6,845750799E1;1,503912210E-1;1,844091415E0;-2,268610001E0
6,855750799E1;-4,278450966E0;7,079591751E-1;7,739293098E0
6,865750799E1;8,679727316E-1;-3,759404182E0;4,701531887E0
6,875750799E1;3,712622643E0;2,600328922E0;3,134710789E0
6,885750799E1;-2,175986528E0;-2,249584198E0;-6,433037281E0
6,895750799E1;5,830698013E0;-2,208138466E0;-4,185057878E-1
6,905750799E1;4,546819210E0;-4,025746346E0;-2,356207848E0
6,915750799E1;-5,203086853E0;-7,175603867E0;2,432248592E0
6,925750799E1;-4,229235649E-1;1,253123283E0;1,235245585E0
6,935750799E1;-3,681162119E0;6,470092773E0;4,727476120E0
6,945750799E1;-3,147984266E0;5,032443523E0;2,813172579E0
6,955750799E1;4,380795956E0;-3,119616508E0;-5,655450821E-1
6,965750799E1;-2,031126976E0;-5,054439545E0;3,282490015E0
6,975750799E1;5,323262215E-1;1,007238007E1;1,006979465E1
6,985750799E1;-3,101842403E-1;-6,149405479E0;-6,541673183E0
6,995750799E1;1,518316269E0;1,748856544E0;2,164825678E0
7,005750799E1;-1,000032187E0;-5,136117935E-1;-3,687758684E0
7,015750799E1;9,414829254E0;-2,644564629E0;7,028911114E-1
7,025750799E1;2,859479666E0;-3,537912369E0;-5,727227688E0
7,035750799E1;-4,953142166E0;-6,513542175E0;8,142331243E-1
7,045750799E1;-3,478507996E0;4,320182800E-1;-8,188511133E-1
7,055750799E1;-3,444347382E0;5,349186897E0;4,320558548E0
7,065750799E1;-3,811163425E0;6,168997765E0;2,463332891E0
7,075750799E1;4,154451847E0;-8,891663551E0;-4,489473820E0
7,085750799E1;7,637826204E-1;-9,976459503E0;-4,474172592E0
7,095750799E1;-2,900818825E0;6,310084343E0;1,323766136E1
7,105750799E1;8,273772597E-1;-4,533101082E0;-6,910978317E0
7,115750799E1;1,951370716E0;3,206474781E0;1,385276198E0
7,125750799E1;4,657292366E-2;1,588817596E0;-3,457865477E0
7,135750799E1;8,280069351E0;-2,485989571E0;-2,382847548E0
7,145750799E1;4,647649288E0;-2,230715752E0;-7,722352982E0
7,155750799E1;-6,458438873E0;-9,320416451E0;-2,317426205E0
7,165750799E1;-4,386469364E0;-3,111045837E0;-1,485550165E0
7,175750799E1;-4,936937332E0;7,300375938E0;5,170818329E0
7,185750799E1;-3,749299526E0;6,627935886E0;1,652663469E0
7,195750799E1;4,149643898E0;-8,800751686E0;-1,841625929E0
7,205750799E1;-2,853778601E0;-4,138641357E0;2,931246281E0
7,215750799E1;-2,270139933E0;5,725964069E0;9,651563644E0
7,225750799E1;-8,964201212E-1;-4,235521317E0;-5,389959812E-1
7,235750799E1;3,497370720E0;2,336859703E0;-6,689954400E-1
7,245750799E1;3,497370720E0;2,336859703E0;-6,689954400E-1
7,255750799E1;3,497370720E0;2,336859703E0;-6,689954400E-1
7,265750799E1;3,497370720E0;2,336859703E0;-6,689954400E-1
7,275750799E1;3,497370720E0;2,336859703E0;-6,689954400E-1
7,285750799E1;3,497370720E0;2,336859703E0;-6,689954400E-1
7,295750799E1;3,497370720E0;2,336859703E0;-6,689954400E-1
7,305750799E1;3,497370720E0;2,336859703E0;-6,689954400E-1
7,315750799E1;3,497370720E0;2,336859703E0;-6,689954400E-1
7,325750799E1;3,497370720E0;2,336859703E0;-6,689954400E-1
7,335750799E1;3,497370720E0;2,336859703E0;-6,689954400E-1
7,345750799E1;3,497370720E0;2,336859703E0;-6,689954400E-1
7,355750799E1;3,497370720E0;2,336859703E0;-6,689954400E-1
7,365750799E1;3,497370720E0;2,336859703E0;-6,689954400E-1
7,375750799E1;3,497370720E0;2,336859703E0;-6,689954400E-1
7,385750799E1;3,497370720E0;2,336859703E0;-6,689954400E-1
7,395750799E1;3,497370720E0;2,336859703E0;-6,689954400E-1
7,405750799E1;3,497370720E0;2,336859703E0;-6,689954400E-1
7,415750799E1;3,497370720E0;2,336859703E0;-6,689954400E-1
7,425750799E1;3,497370720E0;2,336859703E0;-6,689954400E-1
7,435750799E1;3,497370720E0;2,336859703E0;-6,689954400E-1
7,445750799E1;2,511340141E0;-6,264209747E-1;-2,499671459E0
7,455750799E1;2,511340141E0;-6,264209747E-1;-2,499671459E0
7,465750799E1;1,941975594E0;-7,609393120E0;3,510952711E0
7,475750799E1;1,941975594E0;-7,609393120E0;3,510952711E0
7,485750799E1;7,672678232E-1;1,389889240E0;-1,372612476E0
7,495750799E1;4,636348248E0;-6,546382904E-1;-4,756002426E-1
7,505750799E1;3,581476688E0;-3,085486412E0;-9,029352665E-1
7,515750799E1;4,939671516E0;-4,194003105E0;-2,446241379E-1
7,525750799E1;-6,460878849E0;-5,611279488E0;1,965142250E0
7,535750799E1;4,811613560E0;-5,378532410E-2;7,382627487E0
7,545750799E1;-3,986094475E0;8,064754486E0;4,672916412E0
7,555750799E1;8,732649088E-1;-7,380199432E-1;-4,084302902E0
7,565750799E1;3,288036823E0;1,475808620E0;-3,047449350E0
7,575750799E1;-4,409338951E0;-2,663125992E-1;1,326244593E0
7,585750799E1;-8,294915557E-1;2,334962368E0;6,157955647E0
7,595750799E1;2,139148235E0;-1,436247826E0;-3,728316784E0
7,605750799E1;1,503071308E0;1,521551132E0;6,660048962E-1
7,615750799E1;5,697500706E-1;-1,828241348E0;-4,565738678E0
7,625750799E1;5,336007118E0;-2,003266335E0;-6,420719624E-1
7,635750799E1;4,722636223E0;-2,265147209E0;-3,406249046E0
7,645750799E1;-5,631127357E0;-6,476419449E0;2,772803068E0
7,655750799E1;6,127473116E-1;-3,124608994E-1;1,061755180E0
7,665750799E1;-3,680197001E0;5,321330547E0;4,566346169E0
7,675750799E1;-3,039422989E0;5,526223183E0;2,021899939E0
7,685750799E1;3,672851086E0;-6,115338326E0;-2,703838348E0
7,695750799E1;-6,120032072E-1;-4,364952087E0;-3,247191668E0
7,705750799E1;-5,124001503E0;7,095353127E0;8,057525635E0
7,715750799E1;1,410080671E0;-5,468812943E0;2,600257158E0
7,725750799E1;2,752685547E0;2,660238266E0;6,073285341E-1
7,735750799E1;7,626514435E-1;-4,016113281E-2;-2,895481586E0
7,745750799E1;8,380837440E0;-3,260722160E0;-1,448656082E0
7,755750799E1;2,300188065E0;-1,426331520E0;-1,050059605E1
7,765750799E1;-2,873818398E0;-1,321014023E1;-1,244938493E0
7,775750799E1;-1,570517778E0;1,732807159E-1;-1,971545696E0
7,785750799E1;-4,217552185E0;6,704756737E0;5,407370567E0
7,795750799E1;-2,658282995E0;5,464044571E0;1,193073511E0
7,805750799E1;3,113407850E0;-1,153156281E0;-2,225060463E-1
7,815750799E1;-2,721980572E0;-9,113389969E0;8,803237915E0
7,825750799E1;-1,463914514E0;-1,413755417E0;4,860734463E0
7,835750799E1;3,653521299E0;5,269851685E-1;-3,095459461E0
7,845750799E1;1,732715249E0;3,120167255E0;6,857233047E-1
7,855750799E1;5,243897915E0;-9,385519028E-1;1,861836910E-1
7,865750799E1;4,438465595E0;-4,708904266E0;-2,371632099E0
7,875750799E1;3,797659636E0;-2,298789978E0;-7,998511195E-1
7,885750799E1;-5,798273087E0;-9,163533211E0;5,785840750E-2
7,895750799E1;3,689671516E0;1,950690746E0;5,408976555E0
7,905750799E1;-6,313698292E0;9,272031784E0;5,664668083E0
7,915750799E1;1,206696224E1;-8,644492149E0;-1,222680378E1
7,925750799E1;2,529582739E0;4,882817268E0;-3,074701786E0
7,935750799E1;-9,220795631E0;1,549988556E1;6,702279091E0
7,945750799E1;7,092958093E-1;-6,358867645E0;2,862340689E0
7,955750799E1;-1,716846824E-1;-4,019451141E-2;-1,092147708E0
7,965750799E1;3,005883694E0;2,098531723E-1;1,648161292E0
7,975750799E1;2,410733700E-1;2,774572372E-1;-2,546519279E0
7,985750799E1;7,847036362E0;-4,558477402E-1;-5,447632074E-1
7,995750799E1;7,847036362E0;-4,558477402E-1;-5,447632074E-1
8,005750799E1;7,847036362E0;-4,558477402E-1;-5,447632074E-1
8,015750799E1;7,847036362E0;-4,558477402E-1;-5,447632074E-1
8,025750799E1;7,847036362E0;-4,558477402E-1;-5,447632074E-1
8,035750799E1;7,847036362E0;-4,558477402E-1;-5,447632074E-1
8,045750799E1;7,847036362E0;-4,558477402E-1;-5,447632074E-1
8,055750799E1;7,847036362E0;-4,558477402E-1;-5,447632074E-1
8,065750799E1;7,847036362E0;-4,558477402E-1;-5,447632074E-1
8,075750799E1;7,847036362E0;-4,558477402E-1;-5,447632074E-1
8,085750799E1;7,847036362E0;-4,558477402E-1;-5,447632074E-1
8,095750799E1;7,847036362E0;-4,558477402E-1;-5,447632074E-1
8,105750799E1;7,847036362E0;-4,558477402E-1;-5,447632074E-1
8,115750799E1;7,847036362E0;-4,558477402E-1;-5,447632074E-1
8,125750799E1;7,847036362E0;-4,558477402E-1;-5,447632074E-1
8,135750799E1;7,847036362E0;-4,558477402E-1;-5,447632074E-1
8,145750799E1;7,847036362E0;-4,558477402E-1;-5,447632074E-1
8,155750799E1;7,847036362E0;-4,558477402E-1;-5,447632074E-1
8,165750799E1;7,847036362E0;-4,558477402E-1;-5,447632074E-1
8,175750799E1;-3,966185093E0;-4,188984871E0;3,989772797E0
8,185750799E1;-3,966185093E0;-4,188984871E0;3,989772797E0
8,195750799E1;2,315699339E0;-4,008134842E0;-3,103222609E0
8,205750799E1;6,430426836E-1;2,274197578E0;9,189050198E-1
8,215750799E1;6,430426836E-1;2,274197578E0;9,189050198E-1
8,225750799E1;5,160243988E0;-1,960038185E0;-6,490278244E-1
8,235750799E1;3,903507233E0;-3,124279022E0;-2,607938290E0
8,245750799E1;3,909732580E0;-3,166715622E0;2,724933326E-1
8,255750799E1;-5,885544300E0;-6,711495399E0;-9,086353779E-1
8,265750799E1;8,373878002E-1;2,967947960E0;2,105230808E0
8,275750799E1;-5,819589615E0;8,437829018E0;4,772333145E0
8,285750799E1;1,064496899E1;-1,188637066E1;-1,010583687E1
8,295750799E1;1,574375987E0;3,271018982E0;-7,994375229E-1
8,305750799E1;-4,842107773E0;5,395030975E0;8,179765701E0
8,315750799E1;3,015757322E0;-9,362363815E0;5,590339661E0
8,325750799E1;2,778522491E0;2,312239170E0;1,266381979E0
8,335750799E1;9,195780754E-1;2,021973133E0;-4,056646347E0
8,345750799E1;6,701219559E0;-3,002056122E0;3,142263889E-1
8,355750799E1;5,297435284E0;-3,938866615E0;-5,218752861E0
8,365750799E1;-6,946201801E0;-1,103043461E1;-2,367907524E0
8,375750799E1;-4,248642445E0;-2,539625168E0;-2,845639944E0
8,385750799E1;-3,761991978E0;7,312577724E0;5,819696426E0
8,395750799E1;-4,132572651E0;6,117364883E0;3,276059628E0
8,405750799E1;2,285739899E0;-6,103198051E0;-6,279993057E-1
8,415750799E1;2,528131902E-1;3,158936977E0;4,194036007E0
8,425750799E1;-9,654817581E-1;6,419135094E0;1,014853287E1
8,435750799E1;7,652044296E-2;-7,742245674E0;-2,073252439E0
8,445750799E1;1,076456308E0;3,991766453E0;8,982373476E-1
8,455750799E1;5,124987125E0;-1,428701401E0;-2,956880569E0
8,465750799E1;5,155592918E0;-5,015686035E0;-2,119036913E0
8,475750799E1;1,377261162E0;-4,897677422E0;1,173154235E0
8,485750799E1;-2,306142807E0;-3,613872528E0;4,785346985E-2
8,495750799E1;4,184245586E0;-5,953598022E-1;2,529578209E0
8,505750799E1;-4,935795784E0;9,354781151E0;4,708986759E0
8,515750799E1;1,836458921E0;-4,786846161E0;-6,668138981E0
8,525750799E1;3,903428316E0;2,572720528E0;-3,781659126E0
8,535750799E1;-6,344398499E0;-5,277297974E0;-1,944483519E0
8,545750799E1;6,875582933E-1;-2,839801788E0;5,974403381E0
8,555750799E1;4,441964626E0;1,179712296E0;-1,544325113E0
8,565750799E1;1,821751595E-1;2,158100128E0;-1,609022141E0
8,575750799E1;4,531687737E0;-1,248047829E0;3,326020241E-1
8,585750799E1;3,937558174E0;-4,034333229E0;-1,869405985E0
8,595750799E1;1,546835184E0;-3,294814110E0;5,577104092E-1
8,605750799E1;-4,059289455E0;-5,182998657E0;9,000749588E-1
8,615750799E1;1,071305275E0;1,525209427E0;1,926236987E0
8,625750799E1;-5,360833645E0;8,470909119E0;3,456375122E0
8,635750799E1;9,441769600E0;-8,455134392E0;-7,128971100E0
8,645750799E1;1,318637013E0;3,754552841E0;-2,980235338E0
8,655750799E1;-5,583921909E0;1,262683868E-1;2,190098763E0
8,665750799E1;2,187171459E0;-4,490121841E0;4,651589870E0
8,675750799E1;1,653668642E0;2,285865307E0;-7,914483547E-1
8,685750799E1;4,436397552E-2;1,225040913E0;-2,991379976E0
8,695750799E1;5,301394939E0;-2,988440514E0;-1,010284185E0
8,705750799E1;3,936848879E0;-4,496300697E0;-4,019453049E0
8,715750799E1;-1,444494724E-1;-3,354414940E0;3,614065647E-1
8,725750799E1;-5,044238091E0;-3,262068748E0;4,598135352E-1
8,735750799E1;-5,044238091E0;-3,262068748E0;4,598135352E-1
8,745750799E1;-5,044238091E0;-3,262068748E0;4,598135352E-1
8,755750799E1;-5,044238091E0;-3,262068748E0;4,598135352E-1
8,765750799E1;-5,044238091E0;-3,262068748E0;4,598135352E-1
8,775750799E1;-5,044238091E0;-3,262068748E0;4,598135352E-1
8,785750799E1;-5,044238091E0;-3,262068748E0;4,598135352E-1
8,795750799E1;-5,044238091E0;-3,262068748E0;4,598135352E-1
8,805750799E1;-5,044238091E0;-3,262068748E0;4,598135352E-1
8,815750799E1;-5,044238091E0;-3,262068748E0;4,598135352E-1
8,825750799E1;-5,044238091E0;-3,262068748E0;4,598135352E-1
8,835750799E1;-5,044238091E0;-3,262068748E0;4,598135352E-1
8,845750799E1;-5,044238091E0;-3,262068748E0;4,598135352E-1
8,855750799E1;-5,044238091E0;-3,262068748E0;4,598135352E-1
8,865750799E1;-5,044238091E0;-3,262068748E0;4,598135352E-1
8,875750799E1;-5,044238091E0;-3,262068748E0;4,598135352E-1
8,885750799E1;-5,044238091E0;-3,262068748E0;4,598135352E-1
8,895750799E1;-5,044238091E0;-3,262068748E0;4,598135352E-1
8,905750799E1;-5,044238091E0;-3,262068748E0;4,598135352E-1
8,915750799E1;-5,044238091E0;-3,262068748E0;4,598135352E-1
8,925750799E1;-5,044238091E0;-3,262068748E0;4,598135352E-1
8,935750799E1;-5,044238091E0;-3,262068748E0;4,598135352E-1
8,945750799E1;2,420067310E0;4,342641830E-1;6,619263172E0
8,955750799E1;2,420067310E0;4,342641830E-1;6,619263172E0
8,965750799E1;3,595427513E0;4,962918282E0;-2,752611160E0
8,975750799E1;-1,449159026E0;4,232344627E-1;-2,999627113E0
8,985750799E1;-7,205909252E0;4,885877609E0;8,105895042E0
8,995750799E1;3,409295082E-1;-2,794200897E0;3,293724537E0
9,005750799E1;6,357029676E-1;-2,484464645E0;-3,727119923E0
9,015750799E1;2,233820438E0;4,401572704E0;1,151802540E0
9,025750799E1;-7,720582485E-1;3,456974030E-2;-8,843341827E0
9,035750799E1;7,093300819E0;-4,158544540E0;-1,312001944E0
9,045750799E1;5,462306023E0;-3,856131554E0;1,424916148E0
9,055750799E1;-5,268534184E0;-6,504065514E0;1,894707203E0
9,065750799E1;9,922170639E-1;2,811756134E-1;2,067845821E0
9,075750799E1;-6,496112823E0;1,048848724E1;3,703076124E0
9,085750799E1;8,923504829E0;-9,827184677E0;-5,341184616E0
9,095750799E1;2,100918770E0;6,654966354E0;-6,744842529E-1
9,105750799E1;-8,237664223E0;2,727305889E0;-6,541082859E-1
9,115750799E1;-1,975233257E-1;-6,852198601E0;5,742827415E0
9,125750799E1;3,392501831E0;1,897218227E0;1,313877106E-2
9,135750799E1;5,195875168E-1;4,181556702E-1;-3,748040915E0
9,145750799E1;9,441162109E0;-3,115945816E0;-6,454465389E-1
9,155750799E1;3,198403835E0;-3,978192329E0;-8,063555717E0
9,165750799E1;-4,586863518E0;-9,737106323E0;4,344829559E0
9,175750799E1;-4,431836605E-1;3,931255341E-1;2,071460009E0
9,185750799E1;-4,428185463E0;8,759500504E0;5,676461697E0
9,195750799E1;-1,698257089E0;3,224458694E0;-8,849740028E-2
9,205750799E1;3,562163115E-1;1,904537201E0;-7,912516594E-2
9,215750799E1;-3,052622795E0;-7,016638756E0;6,024780273E-1
9,225750799E1;-8,112556338E-1;-3,221897125E0;1,564022422E0
9,235750799E1;1,379643798E0;1,258468628E0;-1,990119934E0
9,245750799E1;1,925713181E0;2,804535389E0;3,932223320E-1
9,255750799E1;1,280329227E0;-1,294319153E0;-7,913967133E0
9,265750799E1;6,531821251E0;-4,011559486E0;-8,772618771E-1
9,275750799E1;3,658126354E0;-4,309268951E0;2,709296465E0
9,285750799E1;-7,768020630E0;-7,120634079E0;-1,629485488E-1
9,295750799E1;8,234531879E-1;3,416723251E0;2,621643543E0
9,305750799E1;-6,437476158E0;9,899795532E0;3,907250404E0
9,315750799E1;1,013645935E1;-1,628973389E1;-1,104460526E1
9,325750799E1;-9,054323435E-1;-2,067544937E0;-5,387280941E0
9,335750799E1;-5,061683178E0;5,352947235E0;1,024279308E1
9,345750799E1;2,506438971E0;-6,596650124E0;7,529075146E-1
9,355750799E1;1,727033734E0;2,928886890E0;6,615900993E-1
9,365750799E1;-1,208536863E0;-3,549242020E-1;-7,737198830E0
9,375750799E1;8,610580444E0;-1,950996399E0;-1,976527929E0
9,385750799E1;4,196139812E0;-3,008364677E0;-5,177906990E0
9,395750799E1;-6,287681580E0;-6,695150375E0;2,904264212E0
9,405750799E1;2,042410851E0;1,532063484E0;4,802897930E0
9,415750799E1;-4,609095573E0;1,002155781E1;5,581111431E0
9,425750799E1;-3,908628225E-1;-1,971215248E0;-8,395023346E0
9,435750799E1;3,655122519E-1;5,129631042E0;-4,299360275E0
9,445750799E1;-9,056114197E0;-2,011557579E0;-1,690101624E-1
9,455750799E1;-6,223971844E-1;-4,908322334E0;4,934653759E0
9,465750799E1;4,243621826E0;1,769393921E0;-2,735357761E0
9,475750799E1;-3,686695099E-1;9,437437057E-1;-1,990573168E0
9,485750799E1;-3,686695099E-1;9,437437057E-1;-1,990573168E0
9,495750799E1;-3,686695099E-1;9,437437057E-1;-1,990573168E0
9,505750799E1;-3,686695099E-1;9,437437057E-1;-1,990573168E0
9,515750799E1;-3,686695099E-1;9,437437057E-1;-1,990573168E0
9,525750799E1;-3,686695099E-1;9,437437057E-1;-1,990573168E0
9,535750799E1;-3,686695099E-1;9,437437057E-1;-1,990573168E0
9,545750799E1;-3,686695099E-1;9,437437057E-1;-1,990573168E0
9,555750799E1;-3,686695099E-1;9,437437057E-1;-1,990573168E0
9,565750799E1;-3,686695099E-1;9,437437057E-1;-1,990573168E0
9,575750799E1;-3,686695099E-1;9,437437057E-1;-1,990573168E0
9,585750799E1;-3,686695099E-1;9,437437057E-1;-1,990573168E0
9,595750799E1;-3,686695099E-1;9,437437057E-1;-1,990573168E0
9,605750799E1;-3,686695099E-1;9,437437057E-1;-1,990573168E0
9,615750799E1;-3,686695099E-1;9,437437057E-1;-1,990573168E0
9,625750799E1;-3,686695099E-1;9,437437057E-1;-1,990573168E0
9,635750799E1;-3,686695099E-1;9,437437057E-1;-1,990573168E0
9,645750799E1;-3,686695099E-1;9,437437057E-1;-1,990573168E0
9,655750799E1;-3,686695099E-1;9,437437057E-1;-1,990573168E0
9,665750799E1;-3,686695099E-1;9,437437057E-1;-1,990573168E0
9,675750799E1;8,089937568E-1;-6,570880890E0;4,214768410E0
9,685750799E1;8,089937568E-1;-6,570880890E0;4,214768410E0
9,695750799E1;8,089937568E-1;-6,570880890E0;4,214768410E0
9,705750799E1;9,268352509E0;-1,918406487E0;-2,010269165E0
9,715750799E1;4,002001762E0;-2,940409660E0;-5,251468658E0
9,725750799E1;4,002001762E0;-2,940409660E0;-5,251468658E0
9,735750799E1;2,947576284E0;1,651885986E0;3,871130466E0
9,745750799E1;-5,148025990E0;9,185359001E0;4,930913448E0
9,755750799E1;-5,148025990E0;9,185359001E0;4,930913448E0
9,765750799E1;-1,468769431E0;2,861573696E0;-1,086108685E-1
9,775750799E1;-8,309144974E0;-7,678041458E-1;5,112469673E0
9,785750799E1;-1,610124856E-1;-2,608693123E0;4,309576511E0
9,795750799E1;3,438725471E0;9,324674606E-1;-7,892067432E-1
9,805750799E1;1,192023993E0;1,999288082E0;-1,151928663E0
9,815750799E1;3,449903727E0;-1,825839996E0;2,689208031E0
9,825750799E1;4,123857498E0;-3,947242737E0;-2,074417353E0
9,835750799E1;-2,999229431E-1;-4,190543175E0;-9,403171539E-1
9,845750799E1;-6,808419228E0;-4,730332375E0;-2,051862478E0
9,855750799E1;-1,470098019E0;5,413136482E0;8,042995930E-1
9,865750799E1;-5,165123940E0;7,552650928E0;2,754272938E0
9,875750799E1;1,050398827E1;-1,270338821E1;-7,499270439E0
9,885750799E1;-1,318943620E0;-6,550970078E-1;-1,424172878E0
9,895750799E1;-5,492218971E0;5,398495674E0;6,863403320E0
9,905750799E1;1,220885396E0;-4,675636292E0;3,393140316E0
9,915750799E1;2,302960157E0;2,649963856E0;5,412479639E-1
9,925750799E1;5,270280838E-1;7,547378540E-2;-4,484253883E0
9,935750799E1;8,653865814E0;-3,028078079E0;-7,291386127E-1
9,945750799E1;4,145806313E0;-3,353129387E0;-6,381173611E0
9,955750799E1;-5,788728714E0;-7,687799454E0;4,956447124E0
9,965750799E1;2,678913593E0;3,817367554E-2;5,044833660E0
9,975750799E1;-4,884678364E0;8,955114365E0;5,722310543E0
9,985750799E1;-2,154537916E0;5,581188202E-1;-2,115116119E0
9,995750799E1;1,246623755E0;2,501773357E0;-2,556142807E-1
1,000575080E2;-3,292694092E0;-5,993713379E0;7,390553951E-1
1,001575080E2;-1,470039368E0;8,779783249E-1;5,186709881E0
1,002575080E2;3,331703186E0;1,552265167E0;-2,896188259E0
1,003575080E2;1,184150577E0;1,584807396E0;-4,181258678E-1
1,004575080E2;3,904834986E0;-9,748001099E-1;2,521545410E0
1,005575080E2;4,851765156E0;-4,683479309E0;-2,791114569E0
1,006575080E2;-6,077814102E-1;-2,641288757E0;3,878125548E-1
1,007575080E2;-5,669945717E0;-3,388275146E0;-1,944909811E0
1,008575080E2;-2,764216900E0;4,775008202E0;2,382176876E0
1,009575080E2;-5,217157841E0;7,967016697E0;2,772869110E0
1,010575080E2;1,155755234E1;-1,554202938E1;-6,583202362E0
1,011575080E2;-8,383677602E-1;-2,752429962E0;-3,460866451E0
1,012575080E2;-7,590597630E0;2,596250534E0;8,183513641E0
1,013575080E2;2,071357727E0;-4,873583794E0;2,786017179E0
1,014575080E2;3,005142450E0;2,347051144E0;-2,254102230E-1
1,015575080E2;-8,277301788E-1;2,154064178E-1;-4,631994724E0
1,016575080E2;1,027489758E1;-2,668796539E0;6,031656265E-1
1,017575080E2;3,844554424E0;-3,154904366E0;-6,184906960E0
1,018575080E2;-7,119987965E0;-8,112648010E0;3,697863102E0
1,019575080E2;3,412289619E0;6,209487915E-1;6,270625114E0
1,020575080E2;-5,241333961E0;7,776197433E0;4,875686646E0
1,021575080E2;-1,506662369E0;2,630661011E0;-7,877662182E-1
1,022575080E2;1,783968568E0;1,211798668E0;-1,730339527E0
1,023575080E2;1,783968568E0;1,211798668E0;-1,730339527E0
1,024575080E2;1,783968568E0;1,211798668E0;-1,730339527E0
1,025575080E2;1,783968568E0;1,211798668E0;-1,730339527E0
1,026575080E2;1,783968568E0;1,211798668E0;-1,730339527E0
1,027575080E2;1,783968568E0;1,211798668E0;-1,730339527E0
1,028575080E2;1,783968568E0;1,211798668E0;-1,730339527E0
1,029575080E2;1,783968568E0;1,211798668E0;-1,730339527E0
1,030575080E2;1,783968568E0;1,211798668E0;-1,730339527E0
1,031575080E2;1,783968568E0;1,211798668E0;-1,730339527E0
1,032575080E2;1,783968568E0;1,211798668E0;-1,730339527E0
1,033575080E2;1,783968568E0;1,211798668E0;-1,730339527E0
1,034575080E2;1,783968568E0;1,211798668E0;-1,730339527E0
1,035575080E2;1,783968568E0;1,211798668E0;-1,730339527E0
1,036575080E2;1,783968568E0;1,211798668E0;-1,730339527E0
1,037575080E2;1,783968568E0;1,211798668E0;-1,730339527E0
1,038575080E2;1,783968568E0;1,211798668E0;-1,730339527E0
1,039575080E2;1,783968568E0;1,211798668E0;-1,730339527E0
1,040575080E2;1,783968568E0;1,211798668E0;-1,730339527E0
1,041575080E2;1,783968568E0;1,211798668E0;-1,730339527E0
1,042575080E2;-2,697261572E0;4,850262165E0;1,746910214E0
1,043575080E2;-2,697261572E0;4,850262165E0;1,746910214E0
1,044575080E2;-2,697261572E0;4,850262165E0;1,746910214E0
1,045575080E2;-1,146658897E0;-6,147099495E0;2,791580677E0
1,046575080E2;-3,213681221E0;3,048595905E0;7,354167938E0
1,047575080E2;2,171573162E0;-3,844464302E0;-6,587405205E-1
1,048575080E2;1,979239941E0;1,747708797E0;-8,634579182E-1
1,049575080E2;4,188544750E-1;5,932712555E-2;-3,433027983E0
1,050575080E2;9,197101593E0;-2,514614105E0;-1,047987938E0
1,051575080E2;4,954348564E0;-2,179342270E0;-4,553146839E0
1,052575080E2;-5,838010311E0;-7,566937447E0;4,541975021E0
1,053575080E2;3,493470192E0;9,911804199E-1;6,519918442E0
1,054575080E2;-4,827788830E0;8,806390762E0;5,409291267E0
1,055575080E2;1,124031544E-1;4,850711823E-1;-3,599134922E0
1,056575080E2;4,973456860E-1;3,653537273E0;-3,136516809E0
1,057575080E2;-3,459772587E0;-4,562870979E0;5,252124786E0
1,058575080E2;-1,622613788E0;-1,973166466E0;4,075925827E0
1,059575080E2;3,603534460E0;9,714469910E-1;-4,124185085E0
1,060575080E2;1,347045898E0;2,081853867E0;-2,221658230E-1
1,061575080E2;4,142241955E0;-2,383939743E0;2,733459473E-1
1,062575080E2;3,347990513E0;-3,342061043E0;-3,233933449E0
1,063575080E2;4,295302629E-1;-4,259698868E0;-1,289156675E-1
1,064575080E2;-6,814255714E0;-4,517792702E0;-4,201508760E-1
1,065575080E2;-2,101665735E0;4,727417469E0;2,092559338E0
1,066575080E2;-5,404970169E0;8,410668373E0;2,719426870E0
1,067575080E2;4,618979454E0;-9,912627220E0;-5,038498402E0
1,068575080E2;-1,220069170E0;-4,472067833E0;-2,291985989E0
1,069575080E2;-4,734906197E0;5,537798405E0;7,217478275E0
1,070575080E2;2,115802765E0;-5,191903114E0;4,319135666E0
1,071575080E2;3,434941292E0;2,541574001E0;7,212662697E-2
1,072575080E2;3,777821064E-1;-1,264839172E-1;-4,883641720E0
1,073575080E2;9,748921394E0;-1,867225647E0;5,936100483E-1
1,074575080E2;3,479286432E0;-3,393937111E0;-6,128967762E0
1,075575080E2;-6,309982300E0;-7,007064819E0;4,194762230E0
1,076575080E2;2,508262634E0;8,278560638E-1;6,347443581E0
1,077575080E2;-4,493130207E0;9,137972832E0;5,292212963E0
1,078575080E2;-5,114858747E-1;9,659128189E-1;-3,035556793E0
1,079575080E2;1,744834661E0;3,836349487E0;-3,125018120E0
1,080575080E2;-4,649775505E0;-5,277859688E0;6,227190495E-1
1,081575080E2;-1,797334075E0;-9,387674332E-1;4,247828960E0
1,082575080E2;2,538246393E0;-2,741785049E-1;-4,694366932E0
1,083575080E2;1,745699644E0;1,970801830E0;-1,572132111E-2
1,084575080E2;3,201061249E0;-1,705407143E0;-3,177136183E0
1,085575080E2;4,583467007E0;-3,707139015E0;-3,109391689E0
1,086575080E2;3,599359989E-1;-5,887980461E0;4,195045233E-1
1,087575080E2;-5,257804394E0;-5,251844406E0;-1,825387478E0
1,088575080E2;-2,956582069E0;5,518071175E0;2,794674635E0
1,089575080E2;-5,482065201E0;8,199889183E0;2,775755644E0
1,090575080E2;1,121193314E1;-1,532976913E1;-1,065081596E1
1,091575080E2;1,338901162E0;-4,038425446E0;-3,316212654E0
1,092575080E2;-5,598938465E0;3,867213726E0;1,022188282E1
1,093575080E2;2,623808622E0;-4,121160507E0;4,857369661E-1
1,094575080E2;2,238885164E0;2,442600727E0;-1,398742318E0
1,095575080E2;1,143883824E0;3,282337189E-1;-4,280642509E0
1,096575080E2;8,890320778E0;-2,618023872E0;-1,166831493E0
1,097575080E2;8,890320778E0;-2,618023872E0;-1,166831493E0
1,098575080E2;8,890320778E0;-2,618023872E0;-1,166831493E0
1,099575080E2;8,890320778E0;-2,618023872E0;-1,166831493E0
1,100575080E2;8,890320778E0;-2,618023872E0;-1,166831493E0
1,101575080E2;8,890320778E0;-2,618023872E0;-1,166831493E0
1,102575080E2;8,890320778E0;-2,618023872E0;-1,166831493E0
1,103575080E2;8,890320778E0;-2,618023872E0;-1,166831493E0
1,104575080E2;8,890320778E0;-2,618023872E0;-1,166831493E0
1,105575080E2;8,890320778E0;-2,618023872E0;-1,166831493E0
1,106575080E2;8,890320778E0;-2,618023872E0;-1,166831493E0
1,107575080E2;8,890320778E0;-2,618023872E0;-1,166831493E0
1,108575080E2;8,890320778E0;-2,618023872E0;-1,166831493E0
1,109575080E2;8,890320778E0;-2,618023872E0;-1,166831493E0
1,110575080E2;8,890320778E0;-2,618023872E0;-1,166831493E0
1,111575080E2;8,890320778E0;-2,618023872E0;-1,166831493E0
1,112575080E2;8,890320778E0;-2,618023872E0;-1,166831493E0
1,113575080E2;8,890320778E0;-2,618023872E0;-1,166831493E0
1,114575080E2;8,890320778E0;-2,618023872E0;-1,166831493E0
1,115575080E2;8,890320778E0;-2,618023872E0;-1,166831493E0
1,116575080E2;8,890320778E0;-2,618023872E0;-1,166831493E0
1,117575080E2;8,890320778E0;-2,618023872E0;-1,166831493E0
1,118575080E2;8,855702400E0;-2,160227776E0;-8,094651699E-1
1,119575080E2;6,453174114E0;-2,463806152E0;-1,487365723E0
1,120575080E2;6,453174114E0;-2,463806152E0;-1,487365723E0
1,121575080E2;3,060120583E0;8,092403412E-2;5,777415752E0
1,122575080E2;-4,747124672E0;1,096071243E1;6,024388790E0
1,123575080E2;5,904247284E0;-7,912539482E0;-9,415342331E0
1,124575080E2;1,235326290E0;6,682523727E0;-5,849435806E0
1,125575080E2;-7,928380013E0;1,902502060E0;8,756478429E-1
1,126575080E2;1,343263507E0;-4,858003616E0;5,124422073E0
1,127575080E2;4,794470310E0;1,035552025E0;-1,207190275E0
1,128575080E2;1,041037679E0;1,075526714E0;-2,235426903E0
1,129575080E2;6,055064201E0;-1,805601120E0;-1,985273838E0
1,130575080E2;3,977945805E0;-5,026257515E0;-6,878419399E0
1,131575080E2;-5,208761215E0;-8,187964439E0;2,678314686E0
1,132575080E2;-2,694969177E0;-4,978961945E-1;-1,625485420E0
1,133575080E2;-4,801004410E0;7,655143738E0;3,843864202E0
1,134575080E2;-2,490040779E0;3,787408829E0;-3,015716076E-1
1,135575080E2;2,088280201E0;-3,166151047E-1;-1,566380024E0
1,136575080E2;-4,130768776E0;-8,257356644E0;3,376052380E0
1,137575080E2;-1,933513045E0;-2,530317307E-1;3,956109524E0
1,138575080E2;3,211170435E0;-1,023893356E-1;-3,201657295E0
1,139575080E2;1,963339806E0;2,473747730E0;3,849582672E-1
1,140575080E2;3,101749897E0;-2,241198540E0;-1,547798157E0
1,141575080E2;6,095114708E0;-3,407265663E0;-2,258758307E0
1,142575080E2;1,606507540E0;-3,927078247E0;1,030568838E0
1,143575080E2;-5,916585445E0;-5,808751106E0;-1,465538859E0
1,144575080E2;-1,708974957E0;5,063788414E0;1,996675611E0
1,145575080E2;-5,525362492E0;9,268602371E0;2,920086622E0
1,146575080E2;6,401338577E0;-1,266686916E1;-4,827690125E0
1,147575080E2;-1,548171043E-1;-1,388797760E0;-1,053445339E-1
1,148575080E2;-4,184685707E0;6,270976543E0;1,104339790E1
1,149575080E2;2,090820551E0;-6,781926155E0;1,000511646E0
1,150575080E2;3,343580008E0;3,210628033E0;-7,582807541E-2
1,151575080E2;2,351142883E0;-2,281823158E0;-8,366383553E0
1,152575080E2;7,654190540E0;-3,212641716E0;-8,643164635E-1
1,153575080E2;5,344539642E0;-3,686050415E0;4,650882483E-1
1,154575080E2;-6,823012352E0;-8,727769852E0;1,053709388E0
1,155575080E2;4,149844646E0;2,660322189E-1;5,979007721E0
1,156575080E2;-5,478374958E0;1,221903515E1;4,993324280E0
1,157575080E2;6,767014503E0;-9,856427193E0;-1,302725697E1
1,158575080E2;-4,791659117E-1;2,583945751E0;-3,496249676E0
1,159575080E2;-1,167037678E1;5,956159592E0;7,505274773E0
1,160575080E2;3,810987711E0;-7,470529556E0;6,896871567E0
1,161575080E2;5,441194534E0;7,686910629E-1;-1,430706501E0
1,162575080E2;7,221190929E-1;1,782846451E-1;-2,273110628E0
1,163575080E2;9,957978249E0;-3,713100433E0;-1,337553978E0
1,164575080E2;3,782233715E0;-2,852988243E0;-7,168004990E0
1,165575080E2;-5,741371632E0;-8,098156929E0;2,630628824E0
1,166575080E2;-1,603997946E-1;4,538154602E-1;-1,249508858E-1
1,167575080E2;-5,001634121E0;7,941131592E0;5,322719574E0
1,168575080E2;-2,208165646E0;4,059836388E0;2,246763706E-1
1,169575080E2;2,620401621E0;1,590787888E0;-1,540616035E0
1,170575080E2;-6,143708825E-1;-4,536473274E0;2,487237453E0
1,171575080E2;-2,318191528E0;1,665254593E0;5,697091579E0
1,172575080E2;-2,318191528E0;1,665254593E0;5,697091579E0
1,173575080E2;-2,318191528E0;1,665254593E0;5,697091579E0
1,174575080E2;-2,318191528E0;1,665254593E0;5,697091579E0
1,175575080E2;-2,318191528E0;1,665254593E0;5,697091579E0
1,176575080E2;-2,318191528E0;1,665254593E0;5,697091579E0
1,177575080E2;-2,318191528E0;1,665254593E0;5,697091579E0
1,178575080E2;-2,318191528E0;1,665254593E0;5,697091579E0
1,179575080E2;-2,318191528E0;1,665254593E0;5,697091579E0
1,180575080E2;-2,318191528E0;1,665254593E0;5,697091579E0
1,181575080E2;-2,318191528E0;1,665254593E0;5,697091579E0
1,182575080E2;-2,318191528E0;1,665254593E0;5,697091579E0
1,183575080E2;-2,318191528E0;1,665254593E0;5,697091579E0
1,184575080E2;-2,318191528E0;1,665254593E0;5,697091579E0
1,185575080E2;-2,318191528E0;1,665254593E0;5,697091579E0
1,186575080E2;-2,318191528E0;1,665254593E0;5,697091579E0
1,187575080E2;-2,318191528E0;1,665254593E0;5,697091579E0
1,188575080E2;-2,318191528E0;1,665254593E0;5,697091579E0
1,189575080E2;-2,318191528E0;1,665254593E0;5,697091579E0
1,190575080E2;4,145199776E0;-6,211933136E0;-7,202078342E0
1,191575080E2;4,145199776E0;-6,211933136E0;-7,202078342E0
1,192575080E2;4,145199776E0;-6,211933136E0;-7,202078342E0
1,193575080E2;1,535061240E0;-6,686165810E0;5,397062778E0
1,194575080E2;5,247903824E0;6,079158783E-1;-9,575493932E-1
1,195575080E2;5,247903824E0;6,079158783E-1;-9,575493932E-1
1,196575080E2;5,125087738E0;-2,481142044E0;-1,155823946E0
1,197575080E2;3,744752169E0;-3,394850731E0;-5,048023224E0
1,198575080E2;3,744752169E0;-3,394850731E0;-5,048023224E0
1,199575080E2;-4,004583836E0;-1,147460938E0;-2,819144011E0
1,200575080E2;-4,716774464E0;6,515686035E0;3,363239288E0
1,201575080E2;-2,955484867E0;4,082566738E0;7,878253460E-1
1,202575080E2;2,544885635E0;-1,373148918E0;2,463829517E-1
1,203575080E2;-6,384318829E0;-9,400195122E0;6,224469662E0
1,204575080E2;-1,415885210E0;4,107612610E0;6,231510639E0
1,205575080E2;1,436254025E0;-8,044223785E-1;-5,076425552E0
1,206575080E2;1,384202838E0;2,960309505E0;8,727202415E-1
1,207575080E2;4,989481449E0;-2,581415176E0;-3,649026394E0
1,208575080E2;4,683775902E0;-3,918848991E0;4,330456257E-1
1,209575080E2;2,352869987E0;-1,825294495E0;-7,239751816E-1
1,210575080E2;-5,827142715E0;-7,954641342E0;1,808724284E0
1,211575080E2;1,469821572E0;2,592458725E0;3,803000450E0
1,212575080E2;-4,980046272E0;9,957618713E0;3,209458828E0
1,213575080E2;1,335445118E1;-1,832753754E1;-3,825454235E0
1,214575080E2;1,202330589E-1;-1,099333763E0;-2,947045565E0
1,215575080E2;-5,880439758E0;5,665194988E0;9,750368118E0
1,216575080E2;2,391999006E0;-5,829952240E0;3,873903990E0
1,217575080E2;2,764257669E0;2,585457802E0;-3,433670998E-1
1,218575080E2;3,132269382E-1;-4,416141510E-1;-5,048455715E0
1,219575080E2;1,079346848E1;-3,046674728E0;-7,270090580E-1
1,220575080E2;4,606457233E0;-2,840857506E0;-3,815725803E0
1,221575080E2;-7,050088882E0;-8,405669212E0;4,798479080E0
1,222575080E2;4,768417835E0;1,063450813E0;6,934926987E0
1,223575080E2;-4,978449821E0;1,041757202E1;5,299678326E0
1,224575080E2;4,490297318E0;-5,353735924E0;-9,274744034E0
1,225575080E2;2,220320702E-2;5,591760635E0;-2,789675474E0
1,226575080E2;-8,825987816E0;2,071598530E0;-2,838850021E-1
1,227575080E2;3,960471749E-1;-5,697753906E0;4,835676193E0
1,228575080E2;4,887494087E0;1,445544243E0;-9,380471706E-1
1,229575080E2;4,724655151E-1;1,076035976E0;-2,137406349E0
1,230575080E2;8,493871689E0;-2,474540710E0;-8,014540672E-1
1,231575080E2;3,616055965E0;-3,411317825E0;-6,666418552E0
1,232575080E2;-6,152878284E0;-9,183736801E0;4,240101337E0
1,233575080E2;2,425903320E0;6,169452667E-1;4,269716263E0
1,234575080E2;-4,768305779E0;8,314659119E0;4,875105858E0
1,235575080E2;4,173116684E-1;7,053451538E-1;-3,210830927E0
1,236575080E2;-2,084027529E-1;2,988304615E0;-3,374399900E0
1,237575080E2;-8,629404068E0;3,519898415E0;1,261492968E0
1,238575080E2;3,178756833E-1;-6,208780289E0;4,586949348E0
1,239575080E2;4,006408691E0;4,353208542E-1;-6,456941962E-1
1,240575080E2;1,038408041E0;1,485285759E0;-1,395499945E0
1,241575080E2;4,383282185E0;-1,880550385E0;8,115096092E-1
1,242575080E2;3,894461632E0;-5,262640953E0;-3,472363710E0
1,243575080E2;-1,973834395E0;-4,173824310E0;2,168561220E-1
1,244575080E2;-4,387563229E0;-2,821281433E0;-2,466478825E0
1,245575080E2;-3,740019321E0;4,631830692E0;3,836227894E0
1,246575080E2;-5,605906010E0;7,238786221E0;2,470935106E0
1,247575080E2;-5,605906010E0;7,238786221E0;2,470935106E0
1,248575080E2;-5,605906010E0;7,238786221E0;2,470935106E0
1,249575080E2;-5,605906010E0;7,238786221E0;2,470935106E0
1,250575080E2;-5,605906010E0;7,238786221E0;2,470935106E0
1,251575080E2;-5,605906010E0;7,238786221E0;2,470935106E0
1,252575080E2;-5,605906010E0;7,238786221E0;2,470935106E0
1,253575080E2;-5,605906010E0;7,238786221E0;2,470935106E0
1,254575080E2;-5,605906010E0;7,238786221E0;2,470935106E0
1,255575080E2;-5,605906010E0;7,238786221E0;2,470935106E0
1,256575080E2;-5,605906010E0;7,238786221E0;2,470935106E0
1,257575080E2;-5,605906010E0;7,238786221E0;2,470935106E0
1,258575080E2;-5,605906010E0;7,238786221E0;2,470935106E0
1,259575080E2;-5,605906010E0;7,238786221E0;2,470935106E0
1,260575080E2;-5,605906010E0;7,238786221E0;2,470935106E0
1,261575080E2;-5,605906010E0;7,238786221E0;2,470935106E0
1,262575080E2;-5,605906010E0;7,238786221E0;2,470935106E0
1,263575080E2;-5,605906010E0;7,238786221E0;2,470935106E0
1,264575080E2;-5,605906010E0;7,238786221E0;2,470935106E0
1,265575080E2;-5,605906010E0;7,238786221E0;2,470935106E0
1,266575080E2;-5,605906010E0;7,238786221E0;2,470935106E0
1,267575080E2;-5,605906010E0;7,238786221E0;2,470935106E0
1,268575080E2;-5,605906010E0;7,238786221E0;2,470935106E0
1,269575080E2;7,913429737E-1;3,628500462E0;-3,205636501E0
1,270575080E2;-2,935154200E0;-6,762933731E-1;2,421649933E0
1,271575080E2;-5,727825165E-1;-1,424389839E0;4,074301243E0
1,272575080E2;4,300756931E0;1,051591873E0;-2,420282602E0
1,273575080E2;7,092325687E-1;1,710823059E0;-2,471041679E-2
1,274575080E2;5,309368134E0;-1,070605278E0;-1,842992306E-1
1,275575080E2;4,772408485E0;-4,217014313E0;-2,467957020E0
1,276575080E2;-3,112609386E0;-4,751595497E0;-2,166825771E0
1,277575080E2;-4,915759087E0;-3,877285004E0;-1,981378794E0
1,278575080E2;-3,884676456E0;4,970753670E0;1,283190608E0
1,279575080E2;-5,240324974E0;7,776072502E0;3,191443682E0
1,280575080E2;3,148092270E0;-9,288710594E0;-6,062962532E0
1,281575080E2;5,325967073E-1;-5,048967361E0;4,196985722E0
1,282575080E2;-4,025109768E0;3,664481163E0;6,687803268E0
1,283575080E2;2,720609188E0;-5,482169151E0;-3,145402670E-1
1,284575080E2;2,541352272E0;3,133155346E0;4,097913504E-1
1,285575080E2;-2,267181873E-1;-1,072238922E0;-5,509636879E0
1,286575080E2;9,618704796E0;-2,261861801E0;-1,375370026E-1
1,287575080E2;4,664591789E0;-2,533870697E0;-4,894669056E0
1,288575080E2;-5,842504978E0;-7,851284981E0;4,007474899E0
1,289575080E2;4,140744686E0;4,210338593E-1;7,429458141E0
1,290575080E2;-4,251354694E0;8,824955940E0;5,630506039E0
1,291575080E2;1,374031544E0;-2,144856453E0;-5,676206589E0
1,292575080E2;7,881298065E-1;4,268630505E0;-4,102745533E0
1,293575080E2;-3,612331867E0;-2,743460655E0;5,201936245E0
1,294575080E2;-9,986346960E-1;-1,057332039E0;4,468019009E0
1,295575080E2;3,607357502E0;1,136139870E0;-2,836250544E0
1,296575080E2;1,148248315E0;1,950460434E0;1,977984905E-1
1,297575080E2;4,757930756E0;-2,307868004E0;-2,733281851E0
1,298575080E2;4,723419189E0;-2,602623940E0;-2,955837488E0
1,299575080E2;-2,001829147E-1;-4,774650574E0;8,064419031E-2
1,300575080E2;-6,019908905E0;-4,662324905E0;-1,129531264E0
1,301575080E2;-2,134953022E0;5,462870598E0;2,628584623E0
1,302575080E2;-5,324212074E0;7,661402702E0;2,523012161E0
1,303575080E2;4,952257156E0;-6,380147934E0;-3,909712791E0
1,304575080E2;-4,969925284E-1;-4,469526291E0;3,150714397E0
1,305575080E2;-4,095908165E0;4,444424152E0;8,606184959E0
1,306575080E2;3,671558857E0;-5,074281693E0;-1,072340369E0
1,307575080E2;1,648607016E0;3,100654602E0;-1,199117899E0
1,308575080E2;3,159449100E-1;3,279008865E-1;-5,815824032E0
1,309575080E2;8,586336136E0;-2,542208672E0;-6,889967918E-1
1,310575080E2;6,195322990E0;-1,838937759E0;-4,112862587E0
1,311575080E2;-8,513015747E0;-7,471472740E0;3,470626831E0
1,312575080E2;5,195626736E0;2,915878296E-1;8,695769310E0
1,313575080E2;-4,992968559E0;9,787655830E0;5,112899780E0
1,314575080E2;3,966900826E0;-4,300043106E0;-8,123860359E0
1,315575080E2;7,521002293E-1;4,866628170E0;-5,081624985E0
1,316575080E2;-2,096485853E0;-3,851116180E0;-1,436944246E0
1,317575080E2;-1,453428507E0;-3,407302856E0;3,884743214E0
1,318575080E2;4,056868076E0;1,272962570E0;-2,682347059E0
1,319575080E2;1,733890414E0;6,006708145E-1;-5,751309395E-1
1,320575080E2;3,485438347E0;-2,403002739E0;-4,094836235E0
1,321575080E2;3,485438347E0;-2,403002739E0;-4,094836235E0
1,322575080E2;3,485438347E0;-2,403002739E0;-4,094836235E0
1,323575080E2;3,485438347E0;-2,403002739E0;-4,094836235E0
1,324575080E2;3,485438347E0;-2,403002739E0;-4,094836235E0
1,325575080E2;3,485438347E0;-2,403002739E0;-4,094836235E0
1,326575080E2;3,485438347E0;-2,403002739E0;-4,094836235E0
1,327575080E2;3,485438347E0;-2,403002739E0;-4,094836235E0
1,328575080E2;3,485438347E0;-2,403002739E0;-4,094836235E0
1,329575080E2;3,485438347E0;-2,403002739E0;-4,094836235E0
1,330575080E2;3,485438347E0;-2,403002739E0;-4,094836235E0
1,331575080E2;3,485438347E0;-2,403002739E0;-4,094836235E0
1,332575080E2;3,485438347E0;-2,403002739E0;-4,094836235E0
1,333575080E2;3,485438347E0;-2,403002739E0;-4,094836235E0
1,334575080E2;3,485438347E0;-2,403002739E0;-4,094836235E0
1,335575080E2;3,485438347E0;-2,403002739E0;-4,094836235E0
1,336575080E2;3,485438347E0;-2,403002739E0;-4,094836235E0
1,337575080E2;3,485438347E0;-2,403002739E0;-4,094836235E0
1,338575080E2;3,485438347E0;-2,403002739E0;-4,094836235E0
1,339575080E2;3,485438347E0;-2,403002739E0;-4,094836235E0
1,340575080E2;3,485438347E0;-2,403002739E0;-4,094836235E0
1,341575080E2;3,485438347E0;-2,403002739E0;-4,094836235E0
1,342575080E2;4,292082310E0;-1,602786064E0;-1,807682514E0
1,343575080E2;4,628867149E0;-2,875473976E0;-3,077308416E0
1,344575080E2;3,760163784E-1;-5,280564308E0;1,403454542E-1
1,345575080E2;-8,239170074E0;-6,035621643E0;-2,083792686E0
1,346575080E2;-8,239170074E0;-6,035621643E0;-2,083792686E0
1,347575080E2;-5,066401005E0;7,819031715E0;2,492002487E0
1,348575080E2;8,451451302E0;-1,454406452E1;-9,079277992E0
1,349575080E2;3,913866878E-1;-3,753404617E-1;-5,406310558E-1
1,350575080E2;-6,118807793E0;4,325921059E0;6,661535263E0
1,351575080E2;1,965679884E0;-4,816333771E0;3,510019302E0
1,352575080E2;4,492634296E0;2,103090286E0;-2,246612787E0
1,353575080E2;9,573554993E-1;-1,924226761E0;-4,859612942E0
1,354575080E2;8,456812859E0;-2,382873535E0;-1,032094955E0
1,355575080E2;6,236058235E0;-1,981169701E0;-2,746797085E0
1,356575080E2;-6,696534157E0;-6,289820671E0;4,226547241E0
1,357575080E2;3,189293146E0;1,272346497E0;5,478824615E0
1,358575080E2;-3,991865158E0;8,470182419E0;5,622332573E0
1,359575080E2;2,165490627E0;-1,134160995E0;-4,380760193E0
1,360575080E2;2,000102997E-1;4,936647415E0;-3,627773523E0
1,361575080E2;-9,823168755E0;3,943788528E0;7,595109940E-2
1,362575080E2;1,817922592E0;-5,714282990E0;5,127372742E0
1,363575080E2;2,804726124E0;5,338392258E-1;-1,343815565E0
1,364575080E2;1,083021164E0;7,164106369E-1;-1,172354221E0
1,365575080E2;4,804932117E0;-2,282385826E0;9,028935432E-2
1,366575080E2;4,800080776E0;-4,451024055E0;-4,221985817E0
1,367575080E2;-5,389481068E0;-7,943396568E0;4,067069888E-1
1,368575080E2;-3,388348341E0;-1,693012238E0;-3,221012831E0
1,369575080E2;-4,379616261E0;5,946809769E0;2,304881334E0
1,370575080E2;-4,160618305E0;5,722277641E0;2,520646334E0
1,371575080E2;3,306793213E0;-1,275491714E0;-1,059777737E0
1,372575080E2;-7,214120030E-1;-5,636549950E0;7,895872116E0
1,373575080E2;-1,125681877E0;1,622016907E0;6,248278141E0
1,374575080E2;2,503291845E0;-1,264822006E0;-6,550255299E0
1,375575080E2;1,741868258E0;3,756116390E0;2,153499842E0
1,376575080E2;3,158081293E0;-1,810333252E0;-4,088363171E0
1,377575080E2;6,517951012E0;-3,493700981E0;-2,848225594E0
1,378575080E2;5,415039539E0;-2,980481148E0;-1,249914408E0
1,379575080E2;-6,570275784E0;-6,028473854E0;1,401560426E0
1,380575080E2;2,456772566E0;1,233300209E0;4,928121567E0
1,381575080E2;-4,906506538E0;9,525826454E0;4,644039154E0
1,382575080E2;1,058735752E1;-1,117759609E1;-7,974602699E0
1,383575080E2;5,680127740E-1;4,158474922E0;-1,547792435E0
1,384575080E2;-8,221127510E0;8,478345871E-1;-1,651787400E0
1,385575080E2;6,643308401E-1;-4,971534729E0;5,064372063E0
1,386575080E2;4,856407166E0;1,866952419E0;-1,196717858E0
1,387575080E2;6,809711456E-1;3,171415329E-1;-1,598917365E0
1,388575080E2;7,098425865E0;-2,787327766E0;-4,492840767E-1
1,389575080E2;4,136243343E0;-4,720865250E0;-6,014437675E0
1,390575080E2;-5,385128975E0;-6,957841873E0;9,318257868E-2
1,391575080E2;-1,708210468E0;-1,175461769E0;-3,126856565E0
1,392575080E2;-5,145500183E0;4,977604389E0;3,751171827E0
1,393575080E2;-3,797530890E0;5,528797626E0;1,782115340E0
1,394575080E2;3,157701492E0;-3,293233871E0;-4,696369171E0
1,395575080E2;-4,012075424E0;-6,012479782E0;5,708388329E0
1,396575080E2;-4,012075424E0;-6,012479782E0;5,708388329E0
1,397575080E2;-4,012075424E0;-6,012479782E0;5,708388329E0
1,398575080E2;-4,012075424E0;-6,012479782E0;5,708388329E0
1,399575080E2;-4,012075424E0;-6,012479782E0;5,708388329E0
1,400575080E2;-4,012075424E0;-6,012479782E0;5,708388329E0
1,401575080E2;-4,012075424E0;-6,012479782E0;5,708388329E0
1,402575080E2;-4,012075424E0;-6,012479782E0;5,708388329E0
1,403575080E2;-4,012075424E0;-6,012479782E0;5,708388329E0
1,404575080E2;-4,012075424E0;-6,012479782E0;5,708388329E0
1,405575080E2;-4,012075424E0;-6,012479782E0;5,708388329E0
1,406575080E2;-4,012075424E0;-6,012479782E0;5,708388329E0
1,407575080E2;-4,012075424E0;-6,012479782E0;5,708388329E0
1,408575080E2;-4,012075424E0;-6,012479782E0;5,708388329E0
1,409575080E2;-4,012075424E0;-6,012479782E0;5,708388329E0
1,410575080E2;-4,012075424E0;-6,012479782E0;5,708388329E0
1,411575080E2;-4,012075424E0;-6,012479782E0;5,708388329E0
1,412575080E2;-4,012075424E0;-6,012479782E0;5,708388329E0
1,413575080E2;-4,012075424E0;-6,012479782E0;5,708388329E0
1,414575080E2;-4,012075424E0;-6,012479782E0;5,708388329E0
1,415575080E2;-4,012075424E0;-6,012479782E0;5,708388329E0
1,416575080E2;3,230934620E0;-1,723861694E0;-8,411693573E-2
1,416575080E2;3,230934620E0;-1,723861694E0;-8,411693573E-2
1,418575080E2;3,230934620E0;-1,723861694E0;-8,411693573E-2
1,419575080E2;3,190798759E0;-3,132951736E0;-3,928014994E0
1,420575080E2;1,768346071E0;2,289894581E0;-7,153391838E-2
1,421575080E2;1,810363173E0;-1,451608658E0;-5,472303391E0
1,422575080E2;6,594252586E0;-3,198795319E0;1,841936111E-1
1,423575080E2;5,875923157E0;-2,200561523E0;1,003291965E0
1,424575080E2;-7,947583675E0;-6,196082115E0;-3,524420857E-1
1,425575080E2;2,436028719E-1;2,821762562E0;3,873693943E0
1,426575080E2;-4,729430199E0;9,132966042E0;4,286828041E0
1,427575080E2;1,140182686E1;-1,135369396E1;-4,834533691E0
1,428575080E2;6,224741936E-1;3,239261627E0;-2,541980982E0
1,429575080E2;-1,178344345E1;4,906021595E0;1,893664598E0
1,430575080E2;1,331122994E0;-7,854681015E0;5,344660282E0
1,431575080E2;4,984337807E0;1,167373657E0;-6,135411859E-1
1,432575080E2;1,022913575E0;8,178501129E-1;-1,455288649E0
1,433575080E2;4,463912487E0;-2,592508316E0;-1,026074409E0
1,434575080E2;3,442731142E0;-4,309121132E0;-3,751543045E0
1,435575080E2;-3,638325453E0;-4,503078461E0;-4,457366467E-2
1,436575080E2;-3,612180710E0;-2,977128029E0;-3,898330212E0
1,437575080E2;-3,985358477E0;4,885345459E0;3,884907007E0
1,438575080E2;-4,710733891E0;5,220763683E0;2,426754475E0
1,439575080E2;3,114244938E0;-3,354523659E0;-1,003838539E0
1,440575080E2;-1,790957689E0;-5,570386887E0;4,612916470E0
1,441575080E2;-4,031352043E0;3,790497780E0;7,871749878E0
1,442575080E2;1,679248810E0;-4,953970909E0;8,310228586E-2
1,443575080E2;2,281722069E0;2,258567810E0;-5,241812468E-1
1,444575080E2;1,814549327E0;-8,357839584E-1;-4,259169102E0
1,445575080E2;7,158762932E0;-3,867752075E0;-8,423764706E-1
1,446575080E2;6,255162716E0;-3,825631142E0;-2,975942612E0
1,447575080E2;-8,512722015E0;-7,830917358E0;1,395891190E0
1,448575080E2;3,049087524E0;4,584455490E-1;4,574055195E0
1,449575080E2;-4,543404102E0;1,011308575E1;5,202875137E0
1,450575080E2;8,840074539E0;-7,330206871E0;-8,643743515E0
1,451575080E2;-1,492074728E-1;4,076034069E0;-3,115985632E0
1,452575080E2;-9,086602211E0;3,944335461E0;2,052490950E0
1,453575080E2;-9,086602211E0;3,944335461E0;2,052490950E0
1,454575080E2;-9,086602211E0;3,944335461E0;2,052490950E0
1,455575080E2;-9,086602211E0;3,944335461E0;2,052490950E0
1,456575080E2;-9,086602211E0;3,944335461E0;2,052490950E0
1,457575080E2;-9,086602211E0;3,944335461E0;2,052490950E0
1,458575080E2;-9,086602211E0;3,944335461E0;2,052490950E0
1,459575080E2;-9,086602211E0;3,944335461E0;2,052490950E0
1,460575080E2;-9,086602211E0;3,944335461E0;2,052490950E0
1,461575080E2;-9,086602211E0;3,944335461E0;2,052490950E0
1,462575080E2;-9,086602211E0;3,944335461E0;2,052490950E0
1,463575080E2;-9,086602211E0;3,944335461E0;2,052490950E0
1,464575080E2;1,468555689E0;-3,522141457E0;2,055067420E-1
1,465575080E2;1,468555689E0;-3,522141457E0;2,055067420E-1
1,466575080E2;1,468555689E0;-3,522141457E0;2,055067420E-1
1,467575080E2;9,666376114E0;-3,360564232E0;-1,506769419E0
1,468575080E2;3,550866604E0;-3,263521194E0;-7,527382851E0
1,469575080E2;-6,566626549E0;-7,530664444E0;3,665860176E0
1,470575080E2;9,509814978E-1;1,052331924E-1;3,284186363E0
1,471575080E2;-5,061684132E0;7,956284046E0;5,017402172E0
1,472575080E2;-5,608382821E-1;3,426113605E0;-7,561285496E-1
1,473575080E2;5,094536543E-1;2,474495411E0;-1,107271671E0
1,474575080E2;-4,563031197E-1;-7,015892982E0;4,571672440E0
1,475575080E2;-1,519078970E0;1,925109386E0;4,590728760E0
1,476575080E2;3,640712738E0;-6,935749054E-1;-4,076070309E0
1,477575080E2;1,690288544E0;2,540410042E0;6,982691288E-1
1,478575080E2;5,148308277E-1;-5,080432892E-1;-5,047071457E0
1,479575080E2;8,597501755E0;-3,456195831E0;-1,799374938E0
1,480575080E2;1,675035357E0;-2,675622940E0;1,215553164E0
1,481575080E2;-7,287385941E0;-3,675795555E0;-5,206281662E0
1,482575080E2;-4,095207453E-1;4,268404961E0;1,254321337E0
1,483575080E2;-4,643151760E0;7,789947987E0;2,219977856E0
1,484575080E2;1,032805920E1;-1,294866180E1;-7,594069004E0
1,485575080E2;-3,926056862E0;1,607084274E-1;-1,236141920E0
1,486575080E2;-8,085069656E0;6,330700874E0;4,710314751E0
1,487575080E2;2,267949820E0;-6,724091530E0;5,515196800E0
1,488575080E2;2,267949820E0;-6,724091530E0;5,515196800E0
1,489575080E2;2,267949820E0;-6,724091530E0;5,515196800E0
1,490575080E2;2,267949820E0;-6,724091530E0;5,515196800E0
1,491575080E2;2,267949820E0;-6,724091530E0;5,515196800E0
1,492575080E2;2,267949820E0;-6,724091530E0;5,515196800E0
1,493575080E2;2,267949820E0;-6,724091530E0;5,515196800E0
1,494575080E2;2,267949820E0;-6,724091530E0;5,515196800E0
1,495575080E2;2,267949820E0;-6,724091530E0;5,515196800E0
1,496575080E2;2,267949820E0;-6,724091530E0;5,515196800E0
1,497575080E2;2,267949820E0;-6,724091530E0;5,515196800E0
1,498575080E2;2,267949820E0;-6,724091530E0;5,515196800E0
1,499575080E2;2,267949820E0;-6,724091530E0;5,515196800E0
1,500575080E2;2,267949820E0;-6,724091530E0;5,515196800E0
1,501575080E2;2,267949820E0;-6,724091530E0;5,515196800E0
1,502575080E2;3,918452978E0;-4,641529083E0;-4,351031780E0
1,503575080E2;3,918452978E0;-4,641529083E0;-4,351031780E0
1,504575080E2;-3,676121473E0;-1,777125359E0;-2,727854013E0
1,505575080E2;-3,221105814E0;7,232173443E0;4,551214218E0
1,506575080E2;-4,064918518E0;4,420265675E0;2,355037928E0
1,507575080E2;5,125224113E0;-1,810066223E0;-1,171922207E0
1,508575080E2;-2,509646893E0;-8,096861839E0;4,943406105E0
1,509575080E2;-1,880599380E0;4,730215073E-1;4,765154839E0
1,510575080E2;2,324620724E0;-9,974470139E-1;-4,436367989E0
1,511575080E2;1,697862148E0;2,612767220E0;1,042596340E0
1,512575080E2;2,026179075E0;-1,284033775E0;-5,242894173E0
1,513575080E2;6,040121078E0;-3,118272781E0;-6,801037788E-1
1,514575080E2;6,196856976E0;-3,641060829E0;4,592842460E-1
1,515575080E2;-7,480697155E0;-4,697038651E0;8,334677815E-1
1,516575080E2;1,477213502E0;2,039241791E0;2,199118853E0
1,517575080E2;-5,317999840E0;8,149079323E0;4,672214508E0
1,518575080E2;7,434616089E0;-6,672469139E0;-9,925506592E0
1,519575080E2;1,404318571E0;5,321752071E0;-3,270375252E0
1,520575080E2;-5,865158081E0;1,155468941E0;-4,898004532E0
1,521575080E2;3,011225164E-1;-5,609734535E0;5,209261417E0
1,522575080E2;4,249153137E0;1,114120483E0;-1,397136807E0
1,523575080E2;1,394654393E0;8,759174347E-1;-9,074032307E-1
1,524575080E2;4,558446407E0;-2,207936287E0;-1,855446339E0
1,525575080E2;4,355380058E0;-4,545542717E0;-4,558168411E0
1,526575080E2;-3,846025467E0;-7,381614685E0;-1,201798558E0
1,527575080E2;-4,572139740E0;-2,404215813E0;-3,545152903E0
1,528575080E2;-3,360407352E0;6,354331970E0;5,397424698E0
1,529575080E2;-3,735169172E0;6,165805817E0;2,579433441E0
1,530575080E2;3,430039406E0;-2,757459641E0;-1,198242903E0
1,531575080E2;-2,246026039E0;-5,808152199E0;7,654351234E0
1,532575080E2;-1,836321115E0;3,757739544E0;6,769346237E0
1,533575080E2;2,117701530E0;-3,595860481E0;-4,196057320E0
1,534575080E2;2,334974051E0;2,535307407E0;-7,438516617E-1
1,535575080E2;8,519754410E-1;-6,618785858E-1;-3,561121941E0
1,536575080E2;6,558506012E0;-2,986721039E0;-4,048926830E-1
1,537575080E2;4,962931156E0;-3,961422920E0;-4,899558067E0
1,538575080E2;-6,081732273E0;-6,059194565E0;3,478673220E0
1,539575080E2;4,976247311E0;-8,295917511E-1;7,733933449E0
1,540575080E2;-4,970327377E0;9,272686005E0;4,840726852E0
1,541575080E2;5,559182167E-1;-3,201580048E-1;-2,865861893E0
1,542575080E2;1,043705940E0;4,441902637E0;-3,318142176E0
1,543575080E2;-7,167783737E0;3,528198719E0;4,161672592E0
1,544575080E2;9,412642717E-1;-3,875070572E0;4,555607796E0
1,545575080E2;4,002733231E0;-3,387546539E-2;-5,243128538E-2
1,546575080E2;7,311967611E-1;1,512638092E0;-4,836635590E-1
1,547575080E2;4,048523903E0;-6,102800369E-1;-4,494462013E-1
1,548575080E2;5,877695084E0;-4,052092552E0;-5,225005150E-1
1,549575080E2;2,701417446E0;-2,838233948E0;6,320465803E-1
1,550575080E2;-7,125517845E0;-4,284876823E0;-1,004812717E-1
1,551575080E2;2,922194004E-1;2,937524796E0;1,552847385E0
1,552575080E2;-4,392636299E0;8,580587387E0;3,876055717E0
1,553575080E2;1,087920189E1;-1,101150608E1;-7,154455185E0
1,554575080E2;-2,711204886E-1;2,503775120E0;-3,789777517E0
1,555575080E2;-8,587425232E0;2,604832649E0;-1,382893443E0
1,556575080E2;1,456601501E0;-4,714723587E0;5,145075321E0
1,557575080E2;1,456601501E0;-4,714723587E0;5,145075321E0
1,558575080E2;1,456601501E0;-4,714723587E0;5,145075321E0
1,559575080E2;1,456601501E0;-4,714723587E0;5,145075321E0
1,560575080E2;1,456601501E0;-4,714723587E0;5,145075321E0
1,561575080E2;1,456601501E0;-4,714723587E0;5,145075321E0
1,562575080E2;1,456601501E0;-4,714723587E0;5,145075321E0
1,563575080E2;1,456601501E0;-4,714723587E0;5,145075321E0
1,564575080E2;1,456601501E0;-4,714723587E0;5,145075321E0
1,565575080E2;1,456601501E0;-4,714723587E0;5,145075321E0
1,566575080E2;1,456601501E0;-4,714723587E0;5,145075321E0
1,567575080E2;1,456601501E0;-4,714723587E0;5,145075321E0
1,568575080E2;1,456601501E0;-4,714723587E0;5,145075321E0
1,569575080E2;1,456601501E0;-4,714723587E0;5,145075321E0
1,570575080E2;1,456601501E0;-4,714723587E0;5,145075321E0
1,571575080E2;1,456601501E0;-4,714723587E0;5,145075321E0
1,572575080E2;1,456601501E0;-4,714723587E0;5,145075321E0
1,573575080E2;1,456601501E0;-4,714723587E0;5,145075321E0
1,574575080E2;1,456601501E0;-4,714723587E0;5,145075321E0
1,575575080E2;1,456601501E0;-4,714723587E0;5,145075321E0
1,576575080E2;1,456601501E0;-4,714723587E0;5,145075321E0
1,577575080E2;-1,928418398E0;-9,325637817E-1;2,705386400E0
1,578575080E2;-1,928418398E0;-9,325637817E-1;2,705386400E0
1,579575080E2;-1,928418398E0;-9,325637817E-1;2,705386400E0
1,580575080E2;-1,928418398E0;-9,325637817E-1;2,705386400E0
1,581575080E2;4,087648392E-1;-1,994890213E0;-5,692499161E0
1,582575080E2;7,171172142E0;-3,193470001E0;-2,255781651E0
1,583575080E2;7,301987648E0;-2,918175697E0;-2,627773285E0
1,584575080E2;-7,042117119E0;-6,951801300E0;4,631235600E0
1,585575080E2;3,030684471E0;-4,407901764E-1;4,175140381E0
1,586575080E2;-4,901743412E0;9,626387596E0;5,463528156E0
1,587575080E2;2,385845900E0;-4,219269753E0;-4,547486305E0
1,588575080E2;1,869189739E0;4,736986160E0;-2,147910595E-1
1,589575080E2;-1,006900215E1;3,508027554E0;8,314006329E-1
1,590575080E2;1,016332984E0;-6,654856682E0;6,061286449E0
1,591575080E2;4,146363735E0;1,300115585E-1;-1,912423372E-1
1,592575080E2;1,522987723E0;8,467016220E-1;-1,429815292E0
1,593575080E2;4,462079048E0;-1,205566406E0;-2,750520229E0
1,594575080E2;4,766807079E0;-2,993644714E0;-3,170484304E0
1,595575080E2;-1,029887199E-1;-4,504405975E0;1,601618409E0
1,596575080E2;-4,679802895E0;-3,871989250E0;3,434068561E-1
1,597575080E2;-1,908813715E0;3,760905266E0;2,910311222E0
1,598575080E2;-5,213547230E0;8,199724197E0;2,586067915E0
1,599575080E2;8,226973534E0;-1,097987938E1;-5,648351192E0
1,600575080E2;-3,018862009E-1;-3,719655037E0;-3,010737181E0
1,601575080E2;-6,958507061E0;4,735415936E0;7,005408764E0
1,602575080E2;2,341115236E0;-4,938437462E0;2,305214167E0
1,603575080E2;2,392822266E0;2,852705002E0;9,664540291E-1
1,604575080E2;3,143823147E-1;-4,828424454E-1;-4,221381664E0
1,605575080E2;7,732052326E0;-2,103306770E0;8,061044216E-1
1,606575080E2;3,312818050E0;-2,406327248E0;-6,458341122E0
1,607575080E2;-5,559564114E0;-7,297817230E0;2,873495102E0
1,608575080E2;1,154638290E0;3,647232056E-1;2,993778706E0
1,609575080E2;-4,736568451E0;7,676731586E0;5,162356853E0
1,610575080E2;-6,534001827E-1;3,791652203E0;-5,058128834E-1
1,611575080E2;1,575316548E0;1,703052044E0;-1,867086411E0
1,612575080E2;-2,491909981E0;-3,286714554E0;4,191289902E0
1,613575080E2;-2,203900576E0;4,269890308E0;6,108103752E0
1,614575080E2;2,241862535E0;-4,099174500E0;-5,069640160E0
1,615575080E2;1,760021448E0;2,103900909E0;1,519796133E0
1,616575080E2;1,603706479E0;-2,511085510E0;-6,573443413E0
1,617575080E2;5,769727707E0;-2,862862587E0;-1,585018873E0
1,618575080E2;6,145573616E0;-3,180480957E0;-1,296313524E0
1,619575080E2;-7,624463558E0;-6,668460846E0;2,625640035E-1
1,620575080E2;2,692039967E0;1,229014397E0;4,510747910E0
1,621575080E2;-5,182999611E0;8,991181374E0;5,317177773E0
1,622575080E2;8,175976753E0;-7,778680801E0;-7,380178452E0
1,623575080E2;2,903672457E-1;3,573649883E0;-3,942047358E0
1,624575080E2;-7,808355331E0;2,983639240E0;-1,242127895E0
1,625575080E2;2,317822456E0;-5,447120667E0;4,834091663E0
1,626575080E2;4,879480362E0;8,987731934E-1;9,370812178E-1
1,627575080E2;9,229600430E-1;1,390963078E0;-4,929721355E-2
1,628575080E2;4,262471199E0;-4,707174301E-1;9,595425129E-1
1,629575080E2;4,811092854E0;-3,239605904E0;-1,358000636E0
1,630575080E2;9,964070320E-1;-3,518903732E0;1,449939489E0
1,631575080E2;-5,635019302E0;-3,914402008E0;-1,832474709E0
1,632575080E2;-5,635019302E0;-3,914402008E0;-1,832474709E0
1,633575080E2;-5,635019302E0;-3,914402008E0;-1,832474709E0
1,634575080E2;-5,635019302E0;-3,914402008E0;-1,832474709E0
1,635575080E2;-5,635019302E0;-3,914402008E0;-1,832474709E0
1,636575080E2;-5,635019302E0;-3,914402008E0;-1,832474709E0
1,637575080E2;-5,635019302E0;-3,914402008E0;-1,832474709E0
1,638575080E2;-5,635019302E0;-3,914402008E0;-1,832474709E0
1,639575080E2;-5,635019302E0;-3,914402008E0;-1,832474709E0
1,640575080E2;-5,635019302E0;-3,914402008E0;-1,832474709E0
1,641575080E2;-5,635019302E0;-3,914402008E0;-1,832474709E0
1,642575080E2;-5,635019302E0;-3,914402008E0;-1,832474709E0
1,643575080E2;-5,635019302E0;-3,914402008E0;-1,832474709E0
1,644575080E2;-5,635019302E0;-3,914402008E0;-1,832474709E0
1,645575080E2;-5,635019302E0;-3,914402008E0;-1,832474709E0
1,646575080E2;-5,635019302E0;-3,914402008E0;-1,832474709E0
1,647575080E2;-5,635019302E0;-3,914402008E0;-1,832474709E0
1,648575080E2;-5,635019302E0;-3,914402008E0;-1,832474709E0
1,649575080E2;-5,635019302E0;-3,914402008E0;-1,832474709E0
1,650575080E2;-5,635019302E0;-3,914402008E0;-1,832474709E0
1,651575080E2;7,436211109E0;-2,683259964E0;-1,207833290E0
1,652575080E2;7,436211109E0;-2,683259964E0;-1,207833290E0
1,653575080E2;7,436211109E0;-2,683259964E0;-1,207833290E0
1,654575080E2;2,579336643E0;-8,587045670E-1;6,764175892E0
1,655575080E2;2,579336643E0;-8,587045670E-1;6,764175892E0
1,656575080E2;7,704239488E-1;3,154382706E-1;-3,049192429E0
1,657575080E2;3,643975258E-1;2,468757629E0;-2,460469007E0
1,658575080E2;-5,120539188E0;-3,521282196E0;5,052370071E0
1,659575080E2;-2,903424203E-1;1,952171326E-3;4,099445343E0
1,660575080E2;2,599357605E0;-9,145736694E-3;-2,329633713E0
1,661575080E2;1,788001776E0;1,963922501E0;-5,069661140E-2
1,662575080E2;9,922366142E-1;-9,717750549E-1;-6,355370045E0
1,663575080E2;6,836396217E0;-3,370209694E0;-1,494140387E0
1,664575080E2;4,724188805E0;-3,763819695E0;-3,805618286E-1
1,665575080E2;-5,659635544E0;-5,632257462E0;2,226932764E0
1,666575080E2;6,849445105E-1;5,626888275E-1;2,999420881E0
1,667575080E2;-4,886131763E0;9,232003212E0;4,674281120E0
1,668575080E2;1,143900204E1;-1,097993755E1;-9,327289581E0
1,669575080E2;1,012340784E0;3,848448277E0;-1,789815664E0
1,670575080E2;-8,184771538E0;4,155491352E0;-9,627389908E-2
1,671575080E2;1,020278931E0;-5,436322212E0;4,853155136E0
1,672575080E2;4,524398804E0;8,956203461E-1;-1,080326080E0
1,673575080E2;1,076447964E0;8,330526352E-1;-1,095058680E0
1,674575080E2;5,056011677E0;-2,211625099E0;-1,811067820E0
1,675575080E2;2,858719587E0;-3,620741844E0;-4,503256798E0
1,676575080E2;-6,280915737E-1;-5,778414726E0;8,235619068E-1
1,677575080E2;-6,062275410E0;-3,435757637E0;-2,619855642E0
1,678575080E2;-2,609039783E0;6,013359070E0;3,188680410E0
1,679575080E2;-4,982915878E0;5,831713200E0;2,154000044E0
1,680575080E2;7,661805153E0;-7,584054947E0;-3,389418602E0
1,681575080E2;-1,427392244E0;-4,957050323E0;3,076241016E0
1,682575080E2;-2,997542143E0;3,437808037E0;9,157530785E0
1,683575080E2;1,969422340E0;-2,786371231E0;-3,216766119E0
1,684575080E2;2,462810040E0;1,505477428E0;-2,397439480E-1
1,685575080E2;-5,367112160E-2;-3,245010376E-1;-3,404046059E0
1,686575080E2;8,464540482E0;-2,765049934E0;-7,115905285E-1
1,687575080E2;4,724929810E0;-3,162604332E0;-6,230203629E0
1,688575080E2;-4,206085682E0;-7,211193085E0;5,677121639E0
1,689575080E2;1,708915710E0;2,537326813E-1;4,553706169E0
1,690575080E2;-3,800216198E0;7,386275768E0;4,827863693E0
1,691575080E2;-9,028198123E-1;9,113855362E-1;1,958532333E-1
1,692575080E2;2,193696976E0;1,040213585E0;-3,521945953E0
1,693575080E2;-4,263473988E0;-5,853238106E0;3,873262405E0
1,694575080E2;-1,321618915E0;3,702802658E-1;4,541479111E0
1,695575080E2;2,261825323E0;1,344594955E0;-4,148649693E0
1,696575080E2;1,006383538E0;1,933122635E0;-1,092200518E0
1,697575080E2;4,731422901E0;-1,067212105E0;1,125764370E0
1,698575080E2;5,067122459E0;-3,264439583E0;-1,651247501E0
1,699575080E2;1,529270411E-1;-3,901490211E0;8,362531066E-1
1,700575080E2;-6,639403820E0;-4,432815552E0;-2,911379099E0
1,701575080E2;-1,553533435E0;4,967514515E0;2,211374998E0
1,702575080E2;-4,974580765E0;8,828276634E0;3,634164095E0
1,703575080E2;1,158187866E1;-1,586084080E1;-1,023775291E1
1,704575080E2;-1,863420010E0;-4,418129921E0;-6,066823006E0
1,705575080E2;-7,051520348E0;4,094442368E0;7,608073235E0
1,706575080E2;-7,051520348E0;4,094442368E0;7,608073235E0
1,707575080E2;-7,051520348E0;4,094442368E0;7,608073235E0
1,708575080E2;-7,051520348E0;4,094442368E0;7,608073235E0
1,709575080E2;-7,051520348E0;4,094442368E0;7,608073235E0
1,710575080E2;-7,051520348E0;4,094442368E0;7,608073235E0
1,711575080E2;-7,051520348E0;4,094442368E0;7,608073235E0
1,712575080E2;-7,051520348E0;4,094442368E0;7,608073235E0
1,713575080E2;-7,051520348E0;4,094442368E0;7,608073235E0
1,714575080E2;-7,051520348E0;4,094442368E0;7,608073235E0
1,715575080E2;-7,051520348E0;4,094442368E0;7,608073235E0
1,716575080E2;-7,051520348E0;4,094442368E0;7,608073235E0
1,717575080E2;-7,051520348E0;4,094442368E0;7,608073235E0
1,718575080E2;-7,051520348E0;4,094442368E0;7,608073235E0
1,719575080E2;-7,051520348E0;4,094442368E0;7,608073235E0
1,720575080E2;-7,051520348E0;4,094442368E0;7,608073235E0
1,721575080E2;-7,051520348E0;4,094442368E0;7,608073235E0
1,722575080E2;-7,051520348E0;4,094442368E0;7,608073235E0
1,723575080E2;-7,051520348E0;4,094442368E0;7,608073235E0
1,724575080E2;-7,051520348E0;4,094442368E0;7,608073235E0
1,725575080E2;-7,051520348E0;4,094442368E0;7,608073235E0
1,726575080E2;-7,081837654E-1;1,282167435E-1;-2,153567076E0
1,727575080E2;-7,081837654E-1;1,282167435E-1;-2,153567076E0
1,728575080E2;2,104164124E0;-5,642971992E0;2,464855909E0
1,729575080E2;2,104164124E0;-5,642971992E0;2,464855909E0
1,730575080E2;1,435068369E0;-4,140348434E-1;-3,284732819E0
1,731575080E2;7,934266090E0;-2,319629669E0;-1,180926085E0
1,732575080E2;4,905698776E0;-4,299385071E0;-4,878567219E0
1,733575080E2;-5,429754257E0;-9,557517052E0;2,623478174E0
1,734575080E2;5,174505711E-2;-6,076402664E-1;-1,098647714E0
1,735575080E2;-4,957104683E0;8,549407005E0;4,857030869E0
1,736575080E2;-1,851472139E0;3,206931591E0;1,306078434E-1
1,737575080E2;2,555486917E0;7,812957764E-1;-3,206214905E-1
1,738575080E2;-2,786877632E0;-9,060359955E0;7,299167633E0
1,739575080E2;-1,907736301E0;2,796851635E0;5,747477531E0
1,740575080E2;3,825413704E0;-1,099664688E0;-5,200848579E0
1,741575080E2;1,946543217E0;2,656620502E0;1,502873898E-1
1,742575080E2;1,719976425E0;-1,761492729E0;-5,260702133E0
1,743575080E2;6,153200150E0;-2,062726974E0;-6,919035912E-1
1,744575080E2;1,823973179E0;-3,678512573E0;2,578421354E0
1,745575080E2;-5,281672001E0;-6,084033966E0;-5,414042473E-1
1,746575080E2;-2,403733492E0;5,246336460E0;3,034833431E0
1,747575080E2;-5,080177307E0;8,876668930E0;2,782601357E0
1,748575080E2;1,157358837E1;-1,569288540E1;-7,382873535E0
1,749575080E2;8,106567264E-1;-2,266617775E0;-4,858432770E0
1,750575080E2;-6,283978462E0;4,820407391E0;8,370119095E0
1,751575080E2;2,559835911E0;-7,385040283E0;1,240928888E0
1,752575080E2;2,511067390E0;3,413027287E0;-1,853474975E0
1,753575080E2;8,855421543E-1;1,345712662E0;-3,914393187E0
1,754575080E2;8,843675613E0;-2,134616852E0;-2,425146341E0
1,755575080E2;7,926807404E0;-2,632171631E0;-2,848246574E0
1,756575080E2;-7,579272270E0;-6,985358238E0;4,875375748E0
1,757575080E2;1,995229959E0;1,655852795E0;4,112668991E0
1,758575080E2;-4,213915348E0;1,030693436E1;4,592169762E0
1,759575080E2;8,237110138E0;-8,257462502E0;-1,155824375E1
1,760575080E2;-2,187930107E0;4,253638268E0;-1,130210638E0
1,761575080E2;-9,593654633E0;1,493728638E0;4,972550392E0
1,762575080E2;2,183722973E0;-5,441838264E0;5,345276356E0
1,763575080E2;3,167864799E0;1,392332077E0;-1,343433857E0
1,764575080E2;1,511508703E0;6,802654266E-2;-2,502097130E0
1,765575080E2;6,870555878E0;-3,216616631E0;1,543577433E0
1,766575080E2;6,982438564E0;-2,582827568E0;-7,030014038E0
1,767575080E2;-5,407178879E0;-1,383123970E1;7,195740700E0
1,768575080E2;3,887083769E0;-4,542045593E-1;7,259082317E0
1,769575080E2;-4,178057194E0;1,025509834E1;5,560925484E0
1,770575080E2;-5,882757902E-1;2,269317627E0;-1,632231951E0
1,771575080E2;1,920133591E0;3,238786221E0;-1,986221790E0
1,772575080E2;-5,308515549E0;-7,867037773E0;4,575253963E0
1,773575080E2;-1,793746471E0;6,221904755E-1;5,938906670E0
1,774575080E2;3,055281162E0;8,666458130E-1;-3,843767643E0
1,775575080E2;1,850395322E0;1,723731041E0;1,169919968E-1
1,776575080E2;5,688656330E0;-2,010378838E0;-1,947635889E0
1,777575080E2;5,697660446E0;-3,234738350E0;-3,835108519E0
1,778575080E2;-5,374650002E0;-9,624696732E0;-6,920928955E0
1,779575080E2;-3,534942627E0;-3,731586456E0;-3,661484957E0
1,780575080E2;-4,972698212E0;6,799760818E0;3,578614235E0
1,781575080E2;-4,972698212E0;6,799760818E0;3,578614235E0
1,782575080E2;-4,972698212E0;6,799760818E0;3,578614235E0
1,783575080E2;-4,972698212E0;6,799760818E0;3,578614235E0
1,784575080E2;-4,972698212E0;6,799760818E0;3,578614235E0
1,785575080E2;-4,972698212E0;6,799760818E0;3,578614235E0
1,786575080E2;-4,972698212E0;6,799760818E0;3,578614235E0
1,787575080E2;-4,972698212E0;6,799760818E0;3,578614235E0
1,788575080E2;-4,972698212E0;6,799760818E0;3,578614235E0
1,789575080E2;-4,972698212E0;6,799760818E0;3,578614235E0
1,790575080E2;-4,972698212E0;6,799760818E0;3,578614235E0
1,791575080E2;-4,972698212E0;6,799760818E0;3,578614235E0
1,792575080E2;-4,972698212E0;6,799760818E0;3,578614235E0
1,793575080E2;-4,972698212E0;6,799760818E0;3,578614235E0
1,794575080E2;-4,972698212E0;6,799760818E0;3,578614235E0
1,795575080E2;-4,972698212E0;6,799760818E0;3,578614235E0
1,796575080E2;-4,972698212E0;6,799760818E0;3,578614235E0
1,797575080E2;-4,972698212E0;6,799760818E0;3,578614235E0
1,798575080E2;-4,972698212E0;6,799760818E0;3,578614235E0
1,799575080E2;-4,972698212E0;6,799760818E0;3,578614235E0
1,800575080E2;-4,972698212E0;6,799760818E0;3,578614235E0
1,801575080E2;3,272872448E0;-2,256402969E-1;4,625280380E0
1,802575080E2;3,272872448E0;-2,256402969E-1;4,625280380E0
1,803575080E2;3,272872448E0;-2,256402969E-1;4,625280380E0
1,804575080E2;-1,627452016E0;4,189141750E0;-3,172612906E0
1,805575080E2;-1,026072693E1;4,195515633E0;1,546216011E-2
1,806575080E2;1,910784602E0;-6,943480492E0;5,291609287E0
1,807575080E2;5,133752823E0;1,109382629E0;-5,160405636E-1
1,808575080E2;7,913310528E-1;1,758108139E-1;-1,952165723E0
1,809575080E2;4,474983215E0;-2,223532677E0;-2,466421127E-1
1,810575080E2;3,771962643E0;-3,612625122E0;-3,711792946E0
1,811575080E2;-3,969596624E-1;-2,606791496E0;1,722542763E0
1,812575080E2;-4,713490009E0;-3,664196968E0;-1,979849815E0
1,813575080E2;-1,711845636E0;4,945297241E0;2,115614891E0
1,814575080E2;-5,087970257E0;8,107496262E0;3,017643929E0
1,815575080E2;1,143773556E1;-1,296826935E1;-6,388447762E0
1,816575080E2;-2,211916447E-1;2,621831417E0;-9,082572460E-1
1,817575080E2;-7,033081055E0;1,124197960E0;-1,394363523E0
1,818575080E2;9,138064384E-1;-4,530065536E0;4,555523872E0
1,819575080E2;4,308244705E0;2,478187561E0;-2,840219975E0
1,820575080E2;1,919381618E-1;1,174665451E0;-2,044207811E0
1,821575080E2;8,127176285E0;-2,256846428E0;-1,195300341E0
1,822575080E2;4,749663353E0;-3,924245834E0;-6,525669575E0
1,823575080E2;-6,756085396E0;-7,855851173E0;5,411890984E0
1,824575080E2;3,719284296E0;1,482496262E-1;5,268101692E0
1,825575080E2;-3,838798523E0;8,446078300E0;5,057262421E0
1,826575080E2;-1,580702066E0;3,127756119E0;-1,282972813E0
1,827575080E2;2,635080338E0;2,461157799E0;-1,713963747E0
1,828575080E2;-7,548545361E0;1,828045368E0;3,484163284E0
1,829575080E2;3,346282840E-1;-4,146134377E0;3,684796095E0
1,830575080E2;3,554007530E0;5,866670609E-1;5,966088772E-1
1,831575080E2;1,713695526E0;1,721301079E0;-7,600283623E-1
1,832575080E2;5,473261356E0;-1,694291115E0;1,665047169E0
1,833575080E2;5,188138485E0;-4,272050858E0;-2,769386292E0
1,834575080E2;-2,408085346E0;-7,120282173E0;-2,478994846E0
1,835575080E2;-6,939804077E0;-7,044451714E0;-4,120259285E0
1,836575080E2;-6,571804047E0;5,834132195E0;6,070384979E0
1,837575080E2;-2,832849503E0;7,312107563E0;4,037133217E0
1,838575080E2;9,587795734E-1;-4,425324440E0;4,029270172E0
1,839575080E2;-2,444597960E0;-1,039766502E1;-5,358846664E0
1,840575080E2;-1,322208285E0;-1,341879845E0;4,267231941E0
1,841575080E2;-6,201004982E-1;9,894189835E-1;1,252845526E-1
1,842575080E2;6,400083542E0;-8,570013046E-1;-1,482462883E0
1,843575080E2;1,078588963E-1;7,535858154E-1;-2,198960543E0
1,844575080E2;1,066914749E1;-2,320877075E0;1,036600590E0
1,845575080E2;8,847039223E0;-4,821758270E0;-5,687465668E-1
1,846575080E2;-3,910196543E0;-8,346232414E0;2,827183485E0
1,847575080E2;-1,331093788E0;-7,085895538E-2;2,215250969E0
1,848575080E2;-4,645612717E0;6,585204124E0;6,931453705E0
1,849575080E2;-1,097757101E0;4,084137440E0;3,106670380E-1
1,850575080E2;1,602858543E0;2,532720566E-1;1,295458317E0
1,851575080E2;-2,967257500E0;-1,307151413E1;6,100425720E0
1,852575080E2;-4,019153595E0;1,135653496E0;4,885465622E0
1,853575080E2;1,573422670E0;-2,180519104E0;1,308835268E0
1,854575080E2;5,835707664E0;1,541486740E0;-2,362885475E-1
1,855575080E2;-1,305603981E-1;2,420091629E-1;-2,739222050E0
1,856575080E2;-1,305603981E-1;2,420091629E-1;-2,739222050E0
1,857575080E2;-1,305603981E-1;2,420091629E-1;-2,739222050E0
1,858575080E2;-1,305603981E-1;2,420091629E-1;-2,739222050E0
1,859575080E2;-1,305603981E-1;2,420091629E-1;-2,739222050E0
1,860575080E2;-1,305603981E-1;2,420091629E-1;-2,739222050E0
1,861575080E2;-1,305603981E-1;2,420091629E-1;-2,739222050E0
1,862575080E2;-1,305603981E-1;2,420091629E-1;-2,739222050E0
1,863575080E2;-1,305603981E-1;2,420091629E-1;-2,739222050E0
1,864575080E2;-1,305603981E-1;2,420091629E-1;-2,739222050E0
1,865575080E2;-1,305603981E-1;2,420091629E-1;-2,739222050E0
1,866575080E2;-1,305603981E-1;2,420091629E-1;-2,739222050E0
1,867575080E2;-1,305603981E-1;2,420091629E-1;-2,739222050E0
1,868575080E2;-1,305603981E-1;2,420091629E-1;-2,739222050E0
1,869575080E2;-1,305603981E-1;2,420091629E-1;-2,739222050E0
1,870575080E2;-1,305603981E-1;2,420091629E-1;-2,739222050E0
1,871575080E2;-1,305603981E-1;2,420091629E-1;-2,739222050E0
1,872575080E2;-1,305603981E-1;2,420091629E-1;-2,739222050E0
1,873575080E2;-1,305603981E-1;2,420091629E-1;-2,739222050E0
1,874575080E2;-1,305603981E-1;2,420091629E-1;-2,739222050E0
1,875575080E2;-1,305603981E-1;2,420091629E-1;-2,739222050E0
1,876575080E2;-1,305603981E-1;2,420091629E-1;-2,739222050E0
1,877575080E2;-2,511510849E-1;1,239604473E0;-3,606557608E0
1,878575080E2;-2,511510849E-1;1,239604473E0;-3,606557608E0
1,879575080E2;5,906131744E0;-6,042120934E0;-4,326472282E0
1,880575080E2;-5,732960701E0;-6,473399162E0;9,027859569E-1
1,881575080E2;-2,305313587E0;4,074907303E-1;-6,061426401E-1
1,882575080E2;-4,983841896E0;5,923180580E0;3,719529867E0
1,883575080E2;-4,983841896E0;5,923180580E0;3,719529867E0
1,884575080E2;4,912784576E0;-5,619697571E0;-2,081624746E0
1,885575080E2;2,420761585E0;-5,327168465E0;7,099800110E-1
1,886575080E2;-4,586521626E0;6,276060581E0;1,035443974E1
1,887575080E2;2,095696449E0;-6,686655998E0;2,340208530E0
1,888575080E2;1,458008766E0;2,874424458E0;-8,098246455E-1
1,889575080E2;-4,127049446E-2;2,176589966E-1;-2,769902706E0
1,890575080E2;5,248696327E0;-2,195231438E0;-2,617413521E0
1,891575080E2;3,847866058E0;-4,008664131E0;-2,523857117E0
1,892575080E2;-3,371170282E0;-5,009019852E0;1,141209751E-1
1,893575080E2;-3,564617634E0;-3,184346199E0;-3,524616718E0
1,894575080E2;-3,675754070E0;4,621722698E0;3,591920137E0
1,895575080E2;-4,938962936E0;5,898529053E0;8,123950958E-1
1,896575080E2;7,333368301E0;-9,326475143E0;-4,883007526E0
1,897575080E2;-1,771407485E0;-7,644719124E0;-3,814362764E0
1,898575080E2;-4,530146599E0;3,944920063E0;8,848130226E0
1,899575080E2;7,024024725E-1;-4,358135223E0;-2,359360218E0
1,900575080E2;1,560201049E0;1,817806721E0;4,383221865E-1
1,901575080E2;3,678693771E-1;1,761789322E-1;-2,889029026E0
1,902575080E2;5,035701275E0;-1,937293053E0;-1,963203669E0
1,903575080E2;3,076397419E0;-3,843172073E0;-4,004556656E0
1,904575080E2;-6,215250492E-1;-3,873876572E0;-2,793622613E-1
1,905575080E2;-5,174298763E0;-4,211197853E0;-2,141212940E0
1,906575080E2;-3,421383381E0;4,337418079E0;3,139744043E0
1,907575080E2;-4,867982864E0;6,910397053E0;2,953899860E0
1,908575080E2;9,660602570E0;-7,822591782E0;-6,660432816E0
1,909575080E2;3,757882118E-1;-1,934062958E0;-5,235221386E0
1,910575080E2;-1,062222576E1;9,148712158E-1;-1,072830081E0
1,911575080E2;1,996825933E0;-5,353078842E0;4,760694504E0
1,912575080E2;3,796684027E0;2,940130234E-1;-4,997205138E-1
1,913575080E2;7,021639347E-1;6,916837692E-1;-9,506464005E-2
1,914575080E2;1,722026110E0;-2,184104919E-2;-3,308698177E0
1,915575080E2;4,282322407E0;-1,961834908E0;-9,386334419E-1
1,916575080E2;4,073171139E0;-2,146446228E0;-3,311718702E0
1,917575080E2;-5,956788063E0;-4,747645378E0;2,192313194E0
1,918575080E2;2,530453682E0;-6,708698273E-1;4,568073750E0
1,919575080E2;-3,917153358E0;5,002810955E0;3,732270241E0
1,920575080E2;-2,816222191E0;4,891157627E0;7,578292489E-1
1,921575080E2;5,982793808E0;-8,850533485E0;-4,322289944E0
1,922575080E2;-1,530863285E0;-2,002191544E-1;-1,974722981E0
1,923575080E2;-5,880239487E0;1,522544861E0;-1,292778254E0
1,924575080E2;5,049360991E-1;-3,701745987E0;3,794058561E0
1,925575080E2;2,704278469E0;1,141788483E0;3,501141071E-2
1,926575080E2;6,945822239E-1;2,258882523E-1;-1,196371794E0
1,927575080E2;2,121177912E0;-1,745883942E0;-3,839030027E0
1,928575080E2;4,622799873E0;-2,766314507E0;-2,036266327E0
1,929575080E2;5,844045639E0;-2,769415855E0;-3,571414471E0
1,930575080E2;5,844045639E0;-2,769415855E0;-3,571414471E0
1,931575080E2;5,844045639E0;-2,769415855E0;-3,571414471E0
1,932575080E2;5,844045639E0;-2,769415855E0;-3,571414471E0
1,933575080E2;5,844045639E0;-2,769415855E0;-3,571414471E0
1,934575080E2;5,844045639E0;-2,769415855E0;-3,571414471E0
1,935575080E2;5,844045639E0;-2,769415855E0;-3,571414471E0
1,936575080E2;5,844045639E0;-2,769415855E0;-3,571414471E0
1,937575080E2;5,844045639E0;-2,769415855E0;-3,571414471E0
1,938575080E2;5,844045639E0;-2,769415855E0;-3,571414471E0
1,939575080E2;5,844045639E0;-2,769415855E0;-3,571414471E0
1,940575080E2;5,844045639E0;-2,769415855E0;-3,571414471E0
1,941575080E2;5,844045639E0;-2,769415855E0;-3,571414471E0
1,942575080E2;5,844045639E0;-2,769415855E0;-3,571414471E0
1,943575080E2;5,844045639E0;-2,769415855E0;-3,571414471E0
1,944575080E2;5,844045639E0;-2,769415855E0;-3,571414471E0
1,945575080E2;5,844045639E0;-2,769415855E0;-3,571414471E0
1,946575080E2;5,844045639E0;-2,769415855E0;-3,571414471E0
1,947575080E2;5,844045639E0;-2,769415855E0;-3,571414471E0
1,948575080E2;-2,107504129E0;9,697141647E-1;6,301228523E0
1,949575080E2;-2,107504129E0;9,697141647E-1;6,301228523E0
1,950575080E2;-2,107504129E0;9,697141647E-1;6,301228523E0
1,951575080E2;-1,910991669E-1;1,083660126E-1;-3,504209042E0
1,952575080E2;-1,910991669E-1;1,083660126E-1;-3,504209042E0
1,953575080E2;3,597157001E0;-3,566802025E0;-4,858756065E0
1,954575080E2;-5,173330784E0;-5,050284386E0;-1,859343529E0
1,955575080E2;-5,173330784E0;-5,050284386E0;-1,859343529E0
1,956575080E2;-4,093743801E0;4,841884613E0;2,501085520E0
1,957575080E2;-4,189495564E0;6,648919106E0;2,333402157E0
1,958575080E2;3,705805779E0;-6,083399773E0;-4,608560562E0
1,959575080E2;1,797250032E0;-3,666008949E0;1,552332401E0
1,960575080E2;-5,388928413E0;6,495017052E0;8,528010368E0
1,961575080E2;2,297080040E0;-5,026251793E0;-3,753920197E-1
1,962575080E2;1,741538882E0;1,980466366E0;1,277065277E0
1,963575080E2;-8,976452351E-1;1,656455994E-1;-3,632426977E0
1,964575080E2;6,459274769E0;-1,682929039E0;-1,413594961E0
1,965575080E2;4,298788548E0;-3,281002998E0;-2,967249870E0
1,966575080E2;-1,664011478E-1;-3,469402313E0;9,635048509E-1
1,967575080E2;-4,839011192E0;-3,753453255E0;-1,189740181E0
1,968575080E2;-1,710206628E0;4,092453003E0;1,569927931E0
1,969575080E2;-5,616901398E0;7,677680492E0;3,037123680E0
1,970575080E2;1,181626320E1;-1,333771992E1;-7,955440521E0
1,971575080E2;2,591906786E-1;1,728855133E0;-1,783700705E0
1,972575080E2;-8,090443611E0;1,991303444E0;-8,655464649E-2
1,973575080E2;3,094679117E-2;-4,427229881E0;4,650004864E0
1,974575080E2;3,989982128E0;1,471706390E0;1,711759567E-1
1,975575080E2;1,069765687E0;6,407346725E-1;-1,223305464E0
1,976575080E2;4,619076252E0;-1,713412285E0;-2,269996166E0
1,977575080E2;4,158219337E0;-2,891455650E0;-3,731003046E0
1,978575080E2;-7,378033400E-1;-3,399666786E0;5,155792832E-2
1,979575080E2;-4,255701542E0;-3,974259377E0;-3,038623095E0
1,980575080E2;-1,955790281E0;4,660306931E0;2,299352407E0
1,981575080E2;-5,600987434E0;6,454967022E0;2,823399782E0
1,982575080E2;1,196929646E1;-1,059064865E1;-9,645900726E0
1,983575080E2;4,249906540E-1;1,148769379E0;-1,494713306E0
1,984575080E2;-8,175827026E0;4,163744926E0;-6,368094444E0
1,985575080E2;-6,148288846E-1;-5,198645592E0;4,765447140E0
1,986575080E2;4,894194126E0;1,322607040E0;-1,028141737E0
1,987575080E2;4,442720413E-1;8,684062958E-2;-1,467072725E0
1,988575080E2;4,678032398E0;-1,536589622E0;-1,492406368E0
1,989575080E2;4,113951206E0;-3,750535965E0;-2,795077324E0
1,990575080E2;-4,779449701E-1;-3,306771278E0;5,416781902E-1
1,991575080E2;-6,163778305E0;-4,167337418E0;-1,183256388E0
1,992575080E2;-1,488371134E0;4,580590725E0;1,249921441E0
1,993575080E2;-4,650486469E0;7,203647614E0;2,869042158E0
1,994575080E2;1,150653458E1;-1,131564426E1;-6,206120491E0
1,995575080E2;-9,989293814E-1;1,555690765E0;-2,470459700E0
1,996575080E2;-7,734904289E0;4,859248161E0;3,665532112E0
1,997575080E2;8,908687830E-1;-4,654895782E0;4,289043427E0
1,998575080E2;3,738620520E0;1,776178360E0;-1,027566791E0
1,999575080E2;1,803770781E0;2,929592133E-2;-1,494808435E0
2,000575080E2;4,342398643E0;-1,021251678E0;-3,008139372E0
2,001575080E2;5,548319817E0;-3,056486130E0;-2,890499830E0
2,002575080E2;-2,008552074E0;-4,749248505E0;-6,144622564E-1
2,003575080E2;-4,268712521E0;-4,319492340E0;-2,806904316E0
2,004575080E2;-2,806046486E0;5,518607616E0;2,934733629E0
2,005575080E2;-2,806046486E0;5,518607616E0;2,934733629E0
2,006575080E2;-2,806046486E0;5,518607616E0;2,934733629E0
2,007575080E2;-2,806046486E0;5,518607616E0;2,934733629E0
2,008575080E2;-2,806046486E0;5,518607616E0;2,934733629E0
2,009575080E2;-2,806046486E0;5,518607616E0;2,934733629E0
2,010575080E2;-2,806046486E0;5,518607616E0;2,934733629E0
2,011575080E2;-2,806046486E0;5,518607616E0;2,934733629E0
2,012575080E2;-2,806046486E0;5,518607616E0;2,934733629E0
2,013575080E2;-2,806046486E0;5,518607616E0;2,934733629E0
2,014575080E2;-2,806046486E0;5,518607616E0;2,934733629E0
2,015575080E2;-2,806046486E0;5,518607616E0;2,934733629E0
2,016575080E2;-2,806046486E0;5,518607616E0;2,934733629E0
2,017575080E2;-2,806046486E0;5,518607616E0;2,934733629E0
2,018575080E2;-2,806046486E0;5,518607616E0;2,934733629E0
2,019575080E2;-2,806046486E0;5,518607616E0;2,934733629E0
2,020575080E2;-2,806046486E0;5,518607616E0;2,934733629E0
2,021575080E2;-2,806046486E0;5,518607616E0;2,934733629E0
2,022575080E2;-2,806046486E0;5,518607616E0;2,934733629E0
2,023575080E2;-2,806046486E0;5,518607616E0;2,934733629E0
2,024575080E2;-2,806046486E0;5,518607616E0;2,934733629E0
2,025575080E2;-4,960288048E0;-7,868739128E0;3,359972715E0
2,026575080E2;-4,960288048E0;-7,868739128E0;3,359972715E0
2,027575080E2;-4,049584389E0;7,162152290E0;5,235035419E0
2,028575080E2;-4,049584389E0;7,162152290E0;5,235035419E0
2,029575080E2;1,632766128E0;-1,127385139E0;-8,181078434E-1
2,030575080E2;-9,598791003E-1;-7,473229408E0;4,103050232E0
2,031575080E2;-1,449793577E0;1,274576187E0;5,936163902E0
2,032575080E2;1,764008045E0;2,291469574E-1;-2,819774628E0
2,033575080E2;1,204885244E0;2,603986740E0;6,238518953E-1
2,034575080E2;5,622241497E-1;-7,227153778E-1;-6,092222691E0
2,035575080E2;7,471870422E0;-2,284922600E0;-1,212209225E0
2,036575080E2;5,671841621E0;-3,502863884E0;-2,836120605E0
2,037575080E2;-7,432913303E0;-6,242285728E0;4,302667618E0
2,038575080E2;4,342584610E0;-9,325981140E-3;7,079087734E0
2,039575080E2;-4,419497967E0;7,823801041E0;5,690673828E0
2,040575080E2;5,153134465E-1;1,708425522E0;-2,619170189E0
2,041575080E2;2,573122501E0;1,415361404E0;-3,857469559E0
2,042575080E2;-3,748944283E0;5,231618881E-1;3,739787579E0
2,043575080E2;-5,775859207E-2;-1,434755325E0;4,296343803E0
2,044575080E2;2,700187683E0;8,838329315E-1;-1,553677559E0
2,045575080E2;9,870642424E-1;2,778443336E0;1,450690746E0
2,046575080E2;-2,947816849E-1;-2,755813599E-1;-7,642883301E0
2,047575080E2;7,253120422E0;-1,806553841E0;-2,014684677E0
2,048575080E2;4,823024750E0;-2,866956711E0;-3,282506943E0
2,049575080E2;-6,618502617E0;-4,625777245E0;3,708050251E0
2,050575080E2;3,962162495E0;8,452157974E-1;8,097114563E0
2,051575080E2;-4,656967163E0;7,201281071E0;5,958007812E0
2,052575080E2;3,768004775E-1;1,744767666E0;-2,533648491E0
2,053575080E2;2,747085571E0;1,630296230E0;-2,586087942E0
2,054575080E2;-4,459366798E0;-5,547360420E0;5,880254745E0
2,055575080E2;-1,462821722E0;1,420933723E0;5,016232014E0
2,056575080E2;2,831764460E0;-9,861822128E-1;-5,218459129E0
2,057575080E2;1,630727053E0;1,331375122E0;1,326460004E0
2,058575080E2;6,120417118E-1;-1,801076889E0;-5,141052723E0
2,059575080E2;7,420674324E0;-2,345983505E0;-3,456556797E-1
