"Time (s)";"Acceleration x (m/s^2)";"Acceleration y (m/s^2)";"Acceleration z (m/s^2)"
4,837633000E-2;-5,825326920E0;4,606183529E0;5,129015446E0
1,140590830E-1;-4,670191765E0;3,499503136E0;8,402995110E0
2,140590830E-1;-4,712066174E0;4,149154663E0;7,152146816E0
3,140590830E-1;-4,070191383E0;3,738785267E0;8,678169250E0
4,140590830E-1;-4,207180500E0;3,984647989E0;8,070990562E0
5,140590830E-1;-3,840480328E0;3,326621771E0;7,904689789E0
6,140590830E-1;-3,717848301E0;3,142374277E0;8,657830238E0
7,140590830E-1;-3,339782238E0;2,520838737E0;9,122636795E0
8,140590830E-1;-3,366103172E0;2,475374937E0;9,044271469E0
9,140590830E-1;-3,107080221E0;3,169891834E0;8,659625053E0
1,014059083E0;-2,832503796E0;2,921038151E0;8,693124771E0
1,114059083E0;-2,579462767E0;2,815753937E0;8,099704742E0
1,214059083E0;-4,905286431E-1;1,605584025E0;8,764909744E0
1,314059083E0;1,145563841E0;-8,117650747E-1;9,495318413E0
1,414059083E0;1,275972724E0;-8,404789567E-1;1,046859932E1
1,514059083E0;4,947160780E-1;2,189432621E0;1,196889877E1
1,614059083E0;-1,048056364E0;2,356930256E0;1,056371403E1
1,714059083E0;-3,224328518E0;-4,522434771E-1;8,616554260E0
1,814059083E0;-3,315255880E0;4,863412082E-1;6,266204357E0
1,914059083E0;-7,501499057E-1;2,210968018E0;8,638090134E0
2,014059083E0;5,682953596E-1;2,496910334E0;9,940383911E0
2,114059083E0;2,645863533E0;2,038684845E0;8,706285477E0
2,214059083E0;3,103491068E0;1,638485312E0;9,228518486E0
2,314059083E0;3,337987661E0;1,152144074E0;8,684749603E0
2,414059083E0;3,163909674E0;1,088734269E0;9,324232101E0
2,514059083E0;2,912065268E0;2,093719840E-1;8,194221497E0
2,614059083E0;2,322832584E0;-4,869394004E-1;8,954540253E0
2,714059083E0;2,454437733E0;-4,217349887E-1;9,414560318E0
2,814059083E0;8,733802438E-1;-6,574280262E-1;9,757930756E0
2,914059083E0;8,015955687E-1;-1,501496136E-1;9,793225288E0
3,014059083E0;1,435693622E0;-3,625126183E-1;9,667601585E0
3,114059083E0;-2,811566591E-1;-1,056431174E0;1,133121204E1
3,214059083E0;-1,633101404E-1;-3,469592705E-2;9,824331284E0
3,314059083E0;2,153540403E-2;-5,365904570E-1;9,821340561E0
3,414059083E0;-2,632104978E-2;-4,073780477E-1;9,812367439E0
3,514059083E0;-3,110669367E-2;-4,067798555E-1;9,809376717E0
3,614059083E0;-1,854437590E-2;-4,043870270E-1;9,806385040E0
3,714059083E0;-2,572284266E-2;-4,031906128E-1;9,814162254E0
3,814059083E0;-8,374879137E-3;-4,055834413E-1;9,802198410E0
3,914059083E0;-7,776673418E-3;-4,079762697E-1;9,808777809E0
4,014059083E0;-1,794616925E-3;-4,103690982E-1;9,796813965E0
4,114059083E0;-5,982056609E-4;-4,055834413E-1;9,799804688E0
4,214059083E0;1,794616925E-3;-4,067798555E-1;9,795019150E0
4,314059083E0;-1,794616925E-3;-4,061816335E-1;9,806983948E0
4,414059083E0;-1,196411322E-3;-4,049852192E-1;9,795618057E0
4,514059083E0;-4,785645287E-3;-4,085744619E-1;9,815957069E0
4,614059083E0;1,136590727E-2;-4,067798555E-1;9,798608780E0
4,714059083E0;7,776673418E-3;-4,109672904E-1;9,798010826E0
4,814059083E0;-4,187439568E-3;-3,996013701E-1;9,815358162E0
4,914059083E0;-3,589233849E-3;-4,181457460E-1;9,820742607E0
5,014059083E0;-1,555334684E-2;-3,661018610E-1;9,782457352E0
5,114059083E0;-8,973085321E-3;-4,271188378E-1;9,753743172E0
5,214059083E0;-1,854437590E-2;-4,313062727E-1;9,818947792E0
5,314059083E0;-1,734796353E-2;-4,175475538E-1;9,808777809E0
5,414059083E0;-2,632104978E-2;-4,289134443E-1;9,815957069E0
5,514059083E0;-1,196411345E-2;-4,145565331E-1;9,834501266E0
5,614059083E0;-1,674975827E-2;-4,247260094E-1;9,813564301E0
5,714059083E0;-6,580262445E-3;-4,815555513E-1;9,809376717E0
5,814059083E0;-4,785645287E-3;-4,205385745E-1;9,778867722E0
5,914059083E0;1,914258115E-2;-4,390829504E-1;9,764511108E0
6,014059083E0;6,580262445E-3;-4,211367965E-1;9,809974670E0
6,114059083E0;1,256231871E-2;-4,564309120E-1;9,793225288E0
6,214059083E0;1,615155302E-2;-4,474578202E-1;9,805189133E0
6,314059083E0;5,982056726E-3;-4,546363056E-1;9,834501266E0
6,414059083E0;5,982056726E-3;-4,492524564E-1;9,811769485E0
6,514059083E0;9,571290575E-3;-4,504488707E-1;9,801001549E0
6,614059083E0;-2,991028363E-3;-4,366901219E-1;9,807581902E0
6,714059083E0;5,982056726E-3;-4,552344978E-1;9,765109062E0
6,814059083E0;9,571290575E-3;-4,522434771E-1;9,804591179E0
6,914059083E0;2,033899166E-2;-4,552344978E-1;9,803992271E0
7,014059083E0;2,691925503E-2;-4,462614357E-1;9,812367439E0
7,114059083E0;1,256231871E-2;-4,540380836E-1;9,803394318E0
7,214059083E0;2,033899166E-2;-4,456632137E-1;9,803992271E0
7,314059083E0;1,256231871E-2;-4,366901219E-1;9,821340561E0
7,414059083E0;1,615155302E-2;-4,205385745E-1;9,799206734E0
7,514059083E0;1,256231871E-2;-4,462614357E-1;9,813564301E0
7,614059083E0;-5,982056609E-4;-4,390829504E-1;9,811170578E0
7,714059083E0;-9,571290575E-3;-4,492524564E-1;9,799206734E0
7,814059083E0;-4,187439568E-3;-4,516452849E-1;9,801001549E0
7,914059083E0;-1,196411322E-3;-4,695914388E-1;9,820742607E0
8,014059083E0;3,589233849E-3;-4,474578202E-1;9,836296082E0
8,114059083E0;2,572284266E-2;-5,012963414E-1;9,789037704E0
8,214059083E0;2,033899166E-2;-4,767699242E-1;9,833304405E0
8,314059083E0;3,230310604E-2;-4,492524564E-1;9,781859398E0
8,414059083E0;2,452643216E-2;-4,630111754E-1;9,793823242E0
8,514059083E0;1,615155302E-2;-4,600201547E-1;9,801001549E0
8,614059083E0;1,794616925E-3;-4,671986103E-1;9,816555023E0
8,714059083E0;-0,000000000E0;-4,636093974E-1;9,817750931E0
8,814059083E0;-1,256231871E-2;-4,701896608E-1;9,823733330E0
8,914059083E0;-1,555334684E-2;-4,636093974E-1;9,829715729E0
9,014059083E0;-1,256231871E-2;-4,713860750E-1;9,820143700E0
9,114059083E0;-1,256231871E-2;-4,498506486E-1;9,829116821E0
9,214059083E0;-8,973085321E-3;-4,450650215E-1;9,810572624E0
9,314059083E0;-1,076770201E-2;-4,552344978E-1;9,825528145E0
9,414059083E0;-5,982056726E-3;-4,444667995E-1;9,830313683E0
9,514059083E0;-1,914258115E-2;-4,528416991E-1;9,806983948E0
9,614059083E0;-3,589233849E-3;-4,408775866E-1;9,811769485E0
9,714059083E0;-4,785645287E-3;-4,779663086E-1;9,811769485E0
9,814059083E0;-1,734796353E-2;-4,683950245E-1;9,819545746E0
9,914059083E0;-4,785645287E-3;-4,845465720E-1;9,815358162E0
1,001405908E1;-1,256231871E-2;-4,719842672E-1;9,821340561E0
1,011405908E1;-1,196411345E-2;-4,701896608E-1;9,817152977E0
1,021405908E1;-1,914258115E-2;-4,839483798E-1;9,836894035E0
1,031405908E1;-1,435693540E-2;-5,042873621E-1;9,784850121E0
1,041405908E1;-1,914258115E-2;-5,078766346E-1;9,795019150E0
1,051405908E1;-1,196411322E-3;-5,006981492E-1;9,782457352E0
1,061405908E1;-1,435693540E-2;-5,126622319E-1;9,811170578E0
1,071405908E1;-1,914258115E-2;-5,090730190E-1;9,836894035E0
1,081405908E1;-1,615155302E-2;-5,024927258E-1;9,836894035E0
1,091405908E1;-4,785645287E-3;-5,132604837E-1;9,824930191E0
1,101405908E1;-4,187439568E-3;-5,270192027E-1;9,827322960E0
1,111405908E1;-1,914258115E-2;-5,359922647E-1;9,795019150E0
1,121405908E1;-5,383851007E-3;-5,479564071E-1;9,782457352E0
1,131405908E1;-8,973085321E-3;-5,318048596E-1;9,795618057E0
1,141405908E1;5,982056609E-4;-5,144568682E-1;9,789037704E0
1,151405908E1;-2,392822644E-3;-5,162515044E-1;9,822537422E0
1,161405908E1;-8,374879137E-3;-5,150550604E-1;9,849455833E0
1,171405908E1;-1,734796353E-2;-5,144568682E-1;9,844670296E0
1,181405908E1;-1,316052489E-2;-5,156532526E-1;9,821938515E0
1,191405908E1;-1,854437590E-2;-5,174478889E-1;9,806385040E0
1,201405908E1;-1,495514158E-2;-5,036891699E-1;9,806983948E0
1,211405908E1;-1,316052489E-2;-5,162515044E-1;9,790233612E0
1,221405908E1;-1,256231871E-2;-5,168496966E-1;9,803394318E0
1,231405908E1;-1,375873014E-2;-5,288137794E-1;9,823733330E0
1,241405908E1;-7,776673418E-3;-5,653043389E-1;9,817750931E0
1,251405908E1;3,589233849E-3;-5,665007830E-1;9,824331284E0
1,261405908E1;-4,187439568E-3;-5,377869010E-1;9,832706451E0
1,271405908E1;1,495514158E-2;-5,676971674E-1;9,799804688E0
1,281405908E1;-1,794616925E-3;-5,623133183E-1;9,809974670E0
1,291405908E1;4,785645287E-3;-5,419743061E-1;9,774680138E0
1,301405908E1;1,914258115E-2;-5,395814776E-1;9,775279045E0
1,311405908E1;1,375873014E-2;-5,611169338E-1;9,815957069E0
1,321405908E1;2,871387079E-2;-5,623133183E-1;9,814162254E0
1,331405908E1;1,615155302E-2;-6,317051649E-1;9,862018585E0
1,341405908E1;8,973085321E-3;-6,514459848E-1;9,848857880E0
1,351405908E1;1,256231871E-2;-6,173482537E-1;9,792028427E0
1,361405908E1;1,854437590E-2;-6,119644046E-1;9,792626381E0
1,371405908E1;1,794617064E-2;-5,952146053E-1;9,803992271E0
1,381405908E1;2,691925503E-2;-5,982056856E-1;9,797411919E0
1,391405908E1;2,991028316E-2;-5,724828243E-1;9,811769485E0
1,401405908E1;2,452643216E-2;-5,910272002E-1;9,784252167E0
1,411405908E1;2,512463741E-2;-5,964110494E-1;9,783653259E0
1,421405908E1;1,674975827E-2;-5,970092416E-1;9,802796364E0
1,431405908E1;7,178467698E-3;-5,934200287E-1;9,787242889E0
1,441405908E1;-2,991028363E-3;-5,934200287E-1;9,804591179E0
1,451405908E1;-1,495514158E-2;-5,910272002E-1;9,827920914E0
1,461405908E1;-2,811566554E-2;-5,958128572E-1;9,803992271E0
1,471405908E1;-3,708875179E-2;-5,868397355E-1;9,827322960E0
1,481405908E1;-4,247260094E-2;-5,994020700E-1;9,805787086E0
1,491405908E1;-4,965107143E-2;-5,934200287E-1;9,833304405E0
1,501405908E1;-6,041877344E-2;-5,916253924E-1;9,828518867E0
1,511405908E1;-5,144568533E-2;-5,832505226E-1;9,839884758E0
1,521405908E1;-4,007977992E-2;-5,748756528E-1;9,833903313E0
1,531405908E1;-2,512463741E-2;-5,862415433E-1;9,812367439E0
1,541405908E1;-1,256231871E-2;-5,814558864E-1;9,799804688E0
1,551405908E1;1,076770201E-2;-5,886343718E-1;9,784252167E0
1,561405908E1;1,196411345E-2;-5,964110494E-1;9,796216011E0
1,571405908E1;3,888336942E-2;-6,000002623E-1;9,796813965E0
1,581405908E1;4,426721856E-2;-5,850451589E-1;9,815358162E0
1,591405908E1;5,563312769E-2;-6,233302951E-1;9,800403595E0
1,601405908E1;5,982056633E-2;-6,364908218E-1;9,801599503E0
1,611405908E1;4,426721856E-2;-6,903293133E-1;9,774082184E0
1,621405908E1;4,366901144E-2;-6,693921089E-1;9,754940033E0
1,631405908E1;4,007977992E-2;-6,687939167E-1;9,768698692E0
1,641405908E1;2,392822690E-2;-6,574280262E-1;9,799804688E0
1,651405908E1;1,375873014E-2;-6,484549642E-1;9,815957069E0
1,661405908E1;3,589233849E-3;-6,538388133E-1;9,825528145E0
1,671405908E1;-2,392822644E-3;-6,993024349E-1;9,789037704E0
1,681405908E1;-1,615155302E-2;-6,843472719E-1;9,806385040E0
1,691405908E1;-3,828516230E-2;-6,975077987E-1;9,805787086E0
1,701405908E1;-4,606183618E-2;-6,891329288E-1;9,815957069E0
1,711405908E1;-3,888336942E-2;-6,867401004E-1;9,811170578E0
1,721405908E1;-3,948157281E-2;-6,987041831E-1;9,812965393E0
1,731405908E1;-1,974078640E-2;-6,807580590E-1;9,850054741E0
1,741405908E1;-1,794617064E-2;-6,813562512E-1;9,853643417E0
1,751405908E1;-4,785645287E-3;-6,957131624E-1;9,793225288E0
1,761405908E1;7,178467698E-3;-6,969096065E-1;9,768099785E0
1,771405908E1;2,033899166E-2;-7,064808607E-1;9,772287369E0
1,781405908E1;2,213360928E-2;-6,837490797E-1;9,798010826E0
1,791405908E1;2,093719877E-2;-6,783652306E-1;9,817750931E0
1,801405908E1;1,016949583E-2;-6,729813814E-1;9,819545746E0
1,811405908E1;5,982056726E-3;-6,783652306E-1;9,802796364E0
1,821405908E1;-2,153540403E-2;-6,789634228E-1;9,799206734E0
1,831405908E1;-2,811566554E-2;-6,825526357E-1;9,793225288E0
1,841405908E1;-5,144568533E-2;-6,819544435E-1;9,835099220E0
1,851405908E1;-5,503492057E-2;-6,951149702E-1;9,832706451E0
1,861405908E1;-6,101697683E-2;-6,843472719E-1;9,855438232E0
1,871405908E1;-5,443671346E-2;-6,741777658E-1;9,831509590E0
1,881405908E1;-2,991028316E-2;-6,993024349E-1;9,793225288E0
1,891405908E1;-2,632104978E-2;-7,034898400E-1;9,781260490E0
1,901405908E1;1,914258115E-2;-6,927221417E-1;9,759725571E0
1,911405908E1;2,093719877E-2;-6,771687865E-1;9,783653259E0
1,921405908E1;7,836493850E-2;-6,867401004E-1;9,748359680E0
1,931405908E1;8,673982322E-2;-6,568298340E-1;9,792028427E0
1,941405908E1;1,076770201E-1;-6,358926296E-1;9,859027863E0
1,951405908E1;9,870393574E-2;-6,592226624E-1;9,862616539E0
1,961405908E1;8,733802289E-2;-6,813562512E-1;9,798010826E0
1,971405908E1;7,776673883E-2;-6,741777658E-1;9,823135376E0
1,981405908E1;4,965107143E-2;-6,759724021E-1;9,774680138E0
1,991405908E1;1,375873014E-2;-6,711867452E-1;9,790832520E0
2,001405908E1;-3,409772366E-2;-6,687939167E-1;9,751948357E0
2,011405908E1;-7,298108935E-2;-6,711867452E-1;9,781859398E0
2,021405908E1;-8,494520187E-2;-6,849454641E-1;9,799804688E0
2,031405908E1;-9,870393574E-2;-6,777670383E-1;9,866206169E0
2,041405908E1;-1,142572835E-1;-6,771687865E-1;9,873982430E0
2,051405908E1;-1,010967568E-1;-6,574280262E-1;9,903294563E0
2,061405908E1;-9,092725813E-2;-6,586244106E-1;9,884152412E0
2,071405908E1;-8,733802289E-2;-6,592226624E-1;9,834501266E0
2,081405908E1;-6,879365444E-2;-6,586244106E-1;9,809376717E0
2,091405908E1;-2,931207791E-2;-6,598208547E-1;9,781859398E0
2,101405908E1;-5,982056726E-3;-6,646065116E-1;9,774680138E0
2,111405908E1;2,213360928E-2;-6,693921089E-1;9,781859398E0
2,121405908E1;3,469592705E-2;-6,783652306E-1;9,802796364E0
2,131405908E1;6,999006122E-2;-6,825526357E-1;9,804591179E0
2,141405908E1;8,374879509E-2;-6,837490797E-1;9,794421196E0
2,151405908E1;9,990034252E-2;-6,669993401E-1;9,799206734E0
2,161405908E1;1,058823988E-1;-6,699903607E-1;9,793225288E0
2,171405908E1;1,184447184E-1;-6,723831892E-1;9,774680138E0
2,181405908E1;1,136590764E-1;-6,705885530E-1;9,771091461E0
2,191405908E1;8,075776696E-2;-6,831508875E-1;9,800403595E0
2,201405908E1;5,862415582E-2;-6,927221417E-1;9,803992271E0
2,211405908E1;4,007977992E-2;-6,741777658E-1;9,799206734E0
2,221405908E1;2,811566554E-2;-6,801598072E-1;9,792028427E0
2,231405908E1;-6,580262445E-3;-6,604190469E-1;9,839884758E0
2,241405908E1;-2,512463741E-2;-6,430711150E-1;9,825528145E0
2,251405908E1;-4,307080805E-2;-6,520441771E-1;9,796216011E0
2,261405908E1;-6,879365444E-2;-6,669993401E-1;9,824930191E0
2,271405908E1;-7,657032460E-2;-6,646065116E-1;9,824930191E0
2,281405908E1;-7,238288224E-2;-6,909275651E-1;9,777072906E0
2,291405908E1;-7,657032460E-2;-6,849454641E-1;9,793225288E0
2,301405908E1;-5,623133108E-2;-6,939185858E-1;9,809376717E0
2,311405908E1;-2,811566554E-2;-6,747759581E-1;9,845269203E0
2,321405908E1;2,033899166E-2;-6,538388133E-1;9,833304405E0
2,331405908E1;4,007977992E-2;-6,550351977E-1;9,834501266E0
2,341405908E1;4,905286431E-2;-6,640082598E-1;9,789635658E0
2,351405908E1;7,597211748E-2;-6,681957245E-1;9,770493507E0
2,361405908E1;8,015955985E-2;-7,004988194E-1;9,725627899E0
2,371405908E1;9,092725813E-2;-6,855437160E-1;9,729216576E0
2,381405908E1;8,793623000E-2;-6,747759581E-1;9,808777809E0
2,391405908E1;8,973085135E-2;-6,652047038E-1;9,846465111E0
2,401405908E1;5,802594870E-2;-6,496513486E-1;9,851250648E0
2,411405908E1;3,290131316E-2;-6,526423693E-1;9,862616539E0
2,421405908E1;3,589233849E-3;-6,664010882E-1;9,808179855E0
2,431405908E1;-8,973085321E-3;-6,460621357E-1;9,770493507E0
2,441405908E1;-1,076770201E-2;-6,592226624E-1;9,745966911E0
2,451405908E1;-1,914258115E-2;-6,681957245E-1;9,751948357E0
2,461405908E1;-1,794616925E-3;-6,598208547E-1;9,777671814E0
2,471405908E1;2,392822644E-3;-6,735795736E-1;9,839286804E0
2,481405908E1;2,392822644E-3;-6,825526357E-1;9,878170013E0
2,491405908E1;2,632104978E-2;-6,412764788E-1;9,888937950E0
2,501405908E1;4,187439755E-2;-6,424728632E-1;9,837491989E0
2,511405908E1;3,230310604E-2;-6,388836503E-1;9,766903877E0
2,521405908E1;1,435693540E-2;-6,484549642E-1;9,695717812E0
2,531405908E1;-2,991028363E-3;-6,813562512E-1;9,650852203E0
2,541405908E1;-1,854437590E-2;-6,628118753E-1;9,760921478E0
2,551405908E1;-7,776673418E-3;-6,681957245E-1;9,875777245E0
2,561405908E1;-3,589233849E-3;-6,544370055E-1;9,981659889E0
2,571405908E1;1,854437590E-2;-6,329016089E-1;1,002592659E1
2,581405908E1;7,776673418E-3;-6,448656917E-1;9,927223206E0
2,591405908E1;-5,982056609E-4;-6,687939167E-1;9,708279610E0
2,601405908E1;2,991028363E-3;-6,789634228E-1;9,595816612E0
2,611405908E1;6,580262445E-3;-6,789634228E-1;9,601799011E0
2,621405908E1;1,734796353E-2;-6,556333899E-1;9,668199539E0
2,631405908E1;-5,383851007E-3;-6,568298340E-1;9,811769485E0
2,641405908E1;-1,674975827E-2;-6,382854581E-1;9,832108498E0
2,651405908E1;3,469592705E-2;-6,604190469E-1;9,872786522E0
2,661405908E1;1,734796353E-2;-6,149554253E-1;9,941579819E0
2,671405908E1;1,010967568E-1;-6,400800347E-1;9,926624298E0
2,681405908E1;1,519442350E-1;-6,436693072E-1;9,903892517E0
2,691405908E1;1,956132501E-1;-6,227321029E-1;9,844670296E0
2,701405908E1;2,057827413E-1;-6,299105883E-1;9,826126099E0
2,711405908E1;1,615155339E-1;-6,424728632E-1;9,693324089E0
2,721405908E1;1,417747438E-1;-6,681957245E-1;9,662218094E0
2,731405908E1;1,016949639E-1;-6,610172391E-1;9,742377281E0
2,741405908E1;9,092725813E-2;-6,658028960E-1;9,731011391E0
2,751405908E1;8,374879137E-3;-6,616154313E-1;9,821938515E0
2,761405908E1;-2,632104978E-2;-6,849454641E-1;9,867402077E0
2,771405908E1;-3,649054468E-2;-6,227321029E-1;9,927821159E0
2,781405908E1;-3,589234129E-2;-5,994020700E-1;9,900901794E0
2,791405908E1;-3,888336942E-2;-5,934200287E-1;9,809376717E0
2,801405908E1;-6,939185411E-2;-6,610172391E-1;9,550353050E0
2,811405908E1;-8,733802289E-2;-6,544370055E-1;9,512666702E0
2,821405908E1;-1,351944804E-1;-6,041877270E-1;9,704092026E0
2,831405908E1;-1,752742529E-1;-6,412764788E-1;9,792626381E0
2,841405908E1;-1,142572835E-1;-6,089733839E-1;1,019043350E1
2,851405908E1;-1,064806059E-1;-6,071787477E-1;1,019402313E1
2,861405908E1;6,281159073E-2;-6,628118753E-1;1,005224800E1
2,871405908E1;1,322034448E-1;-6,927221417E-1;9,753743172E0
2,881405908E1;3,672982752E-1;-6,436693072E-1;9,547362328E0
2,891405908E1;3,242274821E-1;-5,814558864E-1;9,632905960E0
2,901405908E1;3,373879790E-1;-6,263213158E-1;9,641879082E0
2,911405908E1;2,488535494E-1;-5,665007830E-1;9,791430473E0
2,921405908E1;1,322034448E-1;-6,191428304E-1;9,796813965E0
2,931405908E1;1,268195957E-1;-6,448656917E-1;9,764511108E0
2,941405908E1;1,597209126E-1;-6,137589812E-1;9,850652695E0
2,951405908E1;1,728814393E-1;-5,946164131E-1;9,926624298E0
2,961405908E1;1,758724600E-1;-5,766702294E-1;9,924830437E0
2,971405908E1;1,435693651E-1;-5,712863803E-1;9,832108498E0
2,981405908E1;7,118647546E-2;-5,599204898E-1;9,652048111E0
2,991405908E1;3,888336942E-2;-5,970092416E-1;9,580862045E0
3,001405908E1;-5,144568533E-2;-6,185446382E-1;9,685547829E0
3,011405908E1;1,615155302E-2;-5,946164131E-1;1,003250694E1
3,021405908E1;1,555334684E-2;-5,700899959E-1;1,019222832E1
3,031405908E1;1,483550072E-1;-5,341976285E-1;1,020179939E1
3,041405908E1;2,219343036E-1;-5,306084156E-1;1,002293587E1
3,051405908E1;2,117647976E-1;-6,436693072E-1;9,524630547E0
3,061405908E1;2,733799815E-1;-6,550351977E-1;9,385248184E0
3,071405908E1;2,117647976E-1;-6,299105883E-1;9,390034676E0
3,081405908E1;2,291127741E-1;-6,346961856E-1;9,575477600E0
3,091405908E1;1,351944804E-1;-5,401797295E-1;9,977472305E0
3,101405908E1;1,208375469E-1;-5,407779217E-1;1,011027431E1
3,111405908E1;5,623133108E-2;-5,820540786E-1;1,005763149E1
3,121405908E1;6,460621208E-2;-6,179464459E-1;9,943374634E0
3,131405908E1;1,238285750E-1;-6,329016089E-1;9,608977318E0
3,141405908E1;1,627119333E-1;-6,305087805E-1;9,540781975E0
3,151405908E1;2,344966233E-1;-5,479564071E-1;9,544969559E0
3,161405908E1;2,524427772E-1;-5,682953596E-1;9,622735977E0
3,171405908E1;2,853440940E-1;-5,814558864E-1;9,894919395E0
3,181405908E1;2,943171859E-1;-5,916253924E-1;1,003370380E1
3,191405908E1;3,146561682E-1;-6,131607890E-1;1,014078236E1
3,201405908E1;2,853440940E-1;-6,071787477E-1;1,005882835E1
3,211405908E1;2,703889608E-1;-5,850451589E-1;9,692128181E0
3,221405908E1;2,488535494E-1;-5,766702294E-1;9,573683739E0
3,231405908E1;1,944168359E-1;-5,718846321E-1;9,418149948E0
3,241405908E1;1,501496136E-1;-5,629115105E-1;9,530014038E0
3,251405908E1;1,064806059E-1;-6,000002623E-1;9,732208252E0
3,261405908E1;8,315058798E-2;-5,904290080E-1;9,921838760E0
3,271405908E1;5,024927482E-2;-5,730810165E-1;9,943972588E0
3,281405908E1;7,178467698E-3;-5,264210105E-1;1,006361389E1
3,291405908E1;-3,948157281E-2;-4,677968323E-1;1,009711361E1
3,301405908E1;-8,973085135E-2;-5,300102234E-1;9,981060982E0
3,311405908E1;-8,135596663E-2;-5,503492355E-1;9,843474388E0
3,321405908E1;-1,734796353E-2;-6,000002623E-1;9,581459999E0
3,331405908E1;4,067798331E-2;-6,317051649E-1;9,492925644E0
3,341405908E1;1,112662554E-1;-6,358926296E-1;9,554540634E0
3,351405908E1;1,561316848E-1;-5,952146053E-1;9,585647583E0
3,361405908E1;2,554338276E-1;-5,096712112E-1;9,904491425E0
3,371405908E1;2,548356056E-1;-4,689932466E-1;1,010488987E1
3,381405908E1;2,368894368E-1;-4,749752879E-1;1,021077251E1
3,391405908E1;1,956132501E-1;-4,929214716E-1;1,013180923E1
3,401405908E1;6,340979785E-2;-6,029912829E-1;9,613164902E0
3,411405908E1;5,922235921E-2;-6,131607890E-1;9,446265221E0
3,421405908E1;6,221338734E-2;-5,850451589E-1;9,379266739E0
3,431405908E1;7,178468257E-2;-5,557330847E-1;9,489934921E0
3,441405908E1;1,196411322E-3;-5,425725579E-1;9,934401512E0
3,451405908E1;-2,213360928E-2;-5,353940725E-1;1,004327488E1
3,461405908E1;-9,092725813E-2;-5,282155871E-1;1,017966557E1
3,471405908E1;-1,058823988E-1;-5,174478889E-1;1,011206818E1
3,481405908E1;-1,016949639E-1;-4,857429862E-1;9,853045464E0
3,491405908E1;-7,178468257E-2;-4,743770957E-1;9,734002113E0
3,501405908E1;4,366901144E-2;-5,222335458E-1;9,538389206E0
3,511405908E1;1,375873089E-1;-5,928218365E-1;9,653244972E0
3,521405908E1;1,794617027E-1;-6,023930907E-1;9,763913155E0
3,531405908E1;1,716850251E-1;-6,041877270E-1;9,996614456E0
3,541405908E1;1,274178028E-1;-5,605186820E-1;1,002233791E1
3,551405908E1;3,349951655E-2;-4,671986103E-1;9,925428391E0
3,561405908E1;-1,854437590E-2;-5,294120312E-1;9,857233047E0
3,571405908E1;-1,016949583E-2;-5,653043389E-1;9,495916367E0
3,581405908E1;8,554340899E-2;-5,724828243E-1;9,437891006E0
3,591405908E1;6,759724021E-2;-5,647061467E-1;9,405587196E0
3,601405908E1;5,443671346E-2;-5,934200287E-1;9,620343208E0
3,611405908E1;-4,127619043E-2;-5,210371017E-1;1,016829967E1
3,621405908E1;-2,392822644E-3;-5,659025311E-1;1,024008465E1
3,631405908E1;2,811566554E-2;-5,395814776E-1;1,019641590E1
3,641405908E1;5,084748194E-2;-5,874379873E-1;9,863813400E0
3,651405908E1;-4,187439568E-3;-5,551348329E-1;9,509675026E0
3,661405908E1;-7,178467698E-3;-5,886343718E-1;9,382855415E0
3,671405908E1;3,589233849E-3;-5,641079545E-1;9,395418167E0
3,681405908E1;1,316052489E-2;-5,659025311E-1;9,455837250E0
3,691405908E1;1,794616925E-3;-4,689932466E-1;9,838089943E0
3,701405908E1;-2,033899166E-2;-4,588237405E-1;9,896714211E0
3,711405908E1;-1,734796353E-2;-4,624129832E-1;1,007797050E1
3,721405908E1;-3,589233849E-3;-5,060819983E-1;1,009711361E1
3,731405908E1;-1,794616925E-3;-5,365904570E-1;9,838089943E0
3,741405908E1;6,580262445E-3;-5,437689424E-1;9,658030510E0
3,751405908E1;1,854437590E-2;-6,137589812E-1;9,438488960E0
3,761405908E1;-4,845465720E-2;-5,527420044E-1;9,687342644E0
3,771405908E1;-9,631111473E-2;-4,612165689E-1;9,765707016E0
3,781405908E1;-1,034895778E-1;-4,073780477E-1;1,000379372E1
3,791405908E1;-1,118644550E-1;-3,972085714E-1;1,005284595E1
3,801405908E1;-8,374879137E-3;-4,654040039E-1;9,933204651E0
3,811405908E1;-1,016949583E-2;-4,624129832E-1;9,821938515E0
3,821405908E1;4,845465720E-2;-5,132604837E-1;9,524630547E0
3,831405908E1;9,451649338E-2;-5,114658475E-1;9,433703423E0
3,841405908E1;8,554340899E-2;-5,240281820E-1;9,571290970E0
3,851405908E1;5,084748194E-2;-4,540380836E-1;9,649057388E0
3,861405908E1;1,220339537E-1;-4,402793646E-1;9,958928108E0
3,871405908E1;1,322034448E-1;-4,211367965E-1;1,009531879E1
3,881405908E1;2,063809484E-1;-4,462614357E-1;9,929018021E0
3,891405908E1;1,974078715E-1;-4,827519655E-1;9,728020668E0
3,901405908E1;2,027917206E-1;-5,144568682E-1;9,499505997E0
3,911405908E1;2,327020019E-1;-5,617151260E-1;9,419346809E0
3,921405908E1;2,410768867E-1;-4,600201547E-1;9,801001549E0
3,931405908E1;2,697907388E-1;-4,169493318E-1;9,957731247E0
3,941405908E1;2,135594189E-1;-3,487538993E-1;1,015274620E1
3,951405908E1;2,386840582E-1;-3,912265003E-1;1,009232807E1
3,961405908E1;2,823530734E-1;-4,755735099E-1;9,742377281E0
3,971405908E1;3,649054468E-1;-4,839483798E-1;9,627521515E0
3,981405908E1;4,606183469E-1;-4,719842672E-1;9,513862610E0
3,991405908E1;5,593222976E-1;-4,354937077E-1;9,615557671E0
4,001405908E1;7,256234884E-1;-4,390829504E-1;9,751350403E0
4,011405908E1;6,741777658E-1;-3,888336718E-1;9,817152977E0
4,021405908E1;5,826523304E-1;-3,667000830E-1;9,741779327E0
4,031405908E1;5,276173949E-1;-4,007977843E-1;9,794421196E0
4,041405908E1;4,713860750E-1;-4,241278172E-1;9,842875481E0
4,051405908E1;2,309073806E-1;-5,240281820E-1;9,835697174E0
4,061405908E1;1,938186288E-1;-5,216353536E-1;9,789635658E0
4,071405908E1;2,225325108E-1;-4,283152521E-1;9,996016502E0
4,081405908E1;3,092723191E-1;-4,331009090E-1;9,977472305E0
4,091405908E1;3,990031779E-1;-3,690928817E-1;9,972088814E0
4,101405908E1;4,229314029E-1;-3,834498227E-1;9,859625816E0
4,111405908E1;4,827519655E-1;-4,468596280E-1;9,654440880E0
4,121405908E1;4,905286431E-1;-5,180460811E-1;9,595218658E0
4,131405908E1;4,965106845E-1;-4,893322289E-1;9,616754532E0
4,141405908E1;5,826523304E-1;-5,120640397E-1;9,574281693E0
4,151405908E1;7,070791125E-1;-4,660021961E-1;9,762118340E0
4,161405908E1;7,764709592E-1;-3,607180119E-1;9,990633011E0
4,171405908E1;8,093722463E-1;-3,678964674E-1;1,017547798E1
4,181405908E1;7,274180651E-1;-3,822534084E-1;1,006181908E1
4,191405908E1;4,941178858E-1;-5,138586760E-1;9,611968994E0
4,201405908E1;4,408775866E-1;-5,246263742E-1;9,504291534E0
4,211405908E1;2,955136001E-1;-5,264210105E-1;9,510871887E0
4,221405908E1;3,032902777E-1;-5,288137794E-1;9,511469841E0
4,231405908E1;1,561316848E-1;-4,157529473E-1;9,882955551E0
4,241405908E1;3,290131316E-2;-4,085744619E-1;1,006600666E1
4,251405908E1;-1,112662554E-1;-3,780659735E-1;1,024666500E1
4,261405908E1;-1,453639716E-1;-4,552344978E-1;9,888339996E0
4,271405908E1;-1,393819153E-1;-4,857429862E-1;9,728618622E0
4,281405908E1;-2,327020019E-1;-5,347958803E-1;9,718449593E0
4,291405908E1;-2,356930375E-1;-5,407779217E-1;9,805787086E0
4,301405908E1;-1,166501045E-1;-4,660021961E-1;9,927223206E0
4,311405908E1;-3,290131316E-2;-3,816552162E-1;9,968499184E0
4,321405908E1;1,740778536E-1;-4,019941986E-1;9,880562782E0
4,331405908E1;2,506481707E-1;-4,025924206E-1;9,750752449E0
4,341405908E1;3,116651475E-1;-5,066801906E-1;9,482157707E0
4,351405908E1;2,715853751E-1;-5,204389095E-1;9,398408890E0
4,361405908E1;2,614158690E-1;-4,875376225E-1;9,678369522E0
4,371405908E1;4,666004330E-2;-4,773681164E-1;9,856036186E0
4,381405908E1;-1,184447184E-1;-2,823530734E-1;1,028076267E1
4,391405908E1;-1,166501045E-1;-3,607180119E-1;1,014496994E1
4,401405908E1;-1,328016520E-1;-5,288137794E-1;9,817152977E0
4,411405908E1;-7,716853172E-2;-4,707878530E-1;9,681958199E0
4,421405908E1;-8,255238086E-2;-4,289134443E-1;9,598209381E0
4,431405908E1;-8,733802289E-2;-4,588237405E-1;9,636494637E0
4,441405908E1;-1,752742529E-1;-3,702892959E-1;9,861420631E0
4,451405908E1;-1,627119333E-1;-3,284149170E-1;1,007976532E1
4,461405908E1;-2,225325108E-1;-3,535395563E-1;1,015753174E1
4,471405908E1;-2,303091735E-1;-3,547359705E-1;1,004686451E1
4,481405908E1;-1,333998591E-1;-5,228317380E-1;9,715457916E0
4,491405908E1;-1,477568001E-1;-6,221339107E-1;9,621540070E0
4,501405908E1;-6,580262445E-3;-4,827519655E-1;9,849455833E0
4,511405908E1;3,074777126E-1;-3,756731451E-1;1,002114105E1
4,521405908E1;3,918247223E-1;-3,912265003E-1;1,002831936E1
4,531405908E1;2,853440940E-1;-4,869394004E-1;9,520442963E0
4,541405908E1;2,219343036E-1;-5,156532526E-1;9,457033157E0
4,551405908E1;1,136590727E-2;-5,258227587E-1;9,610772133E0
4,561405908E1;-1,914258115E-2;-4,372883439E-1;9,914660454E0
4,571405908E1;-8,315058798E-2;-4,426721931E-1;1,008395290E1
4,581405908E1;-1,148554832E-1;-4,444667995E-1;1,015155029E1
4,591405908E1;-1,453639716E-1;-4,145565331E-1;1,007438183E1
4,601405908E1;-1,513460279E-1;-4,121637046E-1;9,798010826E0
4,611405908E1;-1,543370634E-1;-4,971089065E-1;9,608977318E0
4,621405908E1;-1,411765367E-1;-4,677968323E-1;9,723833084E0
4,631405908E1;-1,304088384E-1;-3,954139352E-1;1,012582684E1
4,641405908E1;-1,286142170E-1;-4,666004181E-1;1,013898754E1
4,651405908E1;-7,956135273E-2;-4,737788737E-1;9,851250648E0
4,661405908E1;-7,836493850E-2;-4,989035130E-1;9,706484795E0
4,671405908E1;-7,058826834E-2;-5,647061467E-1;9,556335449E0
4,681405908E1;-5,324030295E-2;-5,790630579E-1;9,610772133E0
4,691405908E1;2,991028363E-3;-5,270192027E-1;1,000139999E1
4,701405908E1;2,333002165E-2;-3,798605800E-1;1,016710377E1
4,711405908E1;8,374879137E-3;-3,349951804E-1;1,011685371E1
4,721405908E1;-4,247260094E-2;-3,547359705E-1;9,960124016E0
4,731405908E1;1,196411322E-3;-4,654040039E-1;9,803992271E0
4,741405908E1;5,982056633E-2;-6,311069727E-1;9,705288887E0
4,751405908E1;2,392822690E-2;-6,011967063E-1;9,695118904E0
4,761405908E1;6,161518395E-2;-5,204389095E-1;9,631111145E0
4,771405908E1;7,178468257E-2;-3,930211067E-1;9,806385040E0
4,781405908E1;6,460621208E-2;-3,577269912E-1;1,003968525E1
4,791405908E1;-2,751746029E-2;-3,032902777E-1;1,021137047E1
4,801405908E1;-1,058823988E-1;-5,557330847E-1;1,014377308E1
4,811405908E1;-5,862415582E-2;-5,880361795E-1;1,011625576E1
4,821405908E1;-4,905286431E-2;-6,496513486E-1;9,741779327E0
4,831405908E1;-3,529413417E-2;-6,221339107E-1;9,658030510E0
4,841405908E1;-2,333002165E-2;-5,312066078E-1;9,618548393E0
4,851405908E1;-4,725824669E-2;-5,162515044E-1;9,686145782E0
4,861405908E1;1,016949583E-2;-4,779663086E-1;9,820143700E0
4,871405908E1;1,016949583E-2;-4,636093974E-1;9,789037704E0
4,881405908E1;9,870393574E-2;-5,072783828E-1;9,833304405E0
4,891405908E1;1,040877849E-1;-5,096712112E-1;9,906285286E0
4,901405908E1;5,144568533E-2;-6,119644046E-1;1,013121128E1
4,911405908E1;8,374879137E-3;-5,820540786E-1;1,016291618E1
4,921405908E1;-3,948157281E-2;-5,545366406E-1;9,963115692E0
4,931405908E1;-7,657032460E-2;-5,246263742E-1;9,897911072E0
4,941405908E1;-8,315058798E-2;-4,785645306E-1;9,659825325E0
4,951405908E1;-7,417750359E-2;-4,815555513E-1;9,631111145E0
4,961405908E1;-4,187439755E-2;-4,887340367E-1;9,686145782E0
4,971405908E1;-2,153540403E-2;-5,096712112E-1;9,754940033E0
4,981405908E1;-5,982056609E-4;-5,988038778E-1;9,893125534E0
4,991405908E1;7,776673418E-3;-6,442674994E-1;9,917651176E0
5,001405908E1;-2,033899166E-2;-5,790630579E-1;1,001276588E1
5,011405908E1;1,854437590E-2;-4,384847581E-1;1,029930687E1
5,021405908E1;1,615155302E-2;-4,187439680E-1;1,022752190E1
5,031405908E1;1,375873014E-2;-5,156532526E-1;9,689137459E0
5,041405908E1;1,495514158E-2;-5,563312769E-1;9,514460564E0
5,051405908E1;-2,273181453E-2;-5,952146053E-1;9,448657990E0
5,061405908E1;-1,316052489E-2;-6,370890141E-1;9,501300812E0
5,071405908E1;-1,555334684E-2;-5,353940725E-1;1,008574772E1
5,081405908E1;9,571290575E-3;-4,546363056E-1;1,031904793E1
5,091405908E1;5,982056633E-2;-3,900300860E-1;1,036810017E1
5,101405908E1;-2,392822690E-2;-4,743770957E-1;1,008933640E1
5,111405908E1;-2,512463741E-2;-6,329016089E-1;9,681360245E0
5,121405908E1;-3,708875179E-2;-6,705885530E-1;9,524630547E0
5,131405908E1;1,615155302E-2;-6,460621357E-1;9,594620705E0
5,141405908E1;-4,187439568E-3;-5,694918036E-1;9,711869240E0
5,151405908E1;-5,982056609E-4;-4,564309120E-1;1,007976532E1
5,161405908E1;-4,486542568E-2;-4,725824594E-1;1,007856941E1
5,171405908E1;-6,580262631E-2;-4,606183469E-1;1,012283611E1
5,181405908E1;-7,657032460E-2;-5,802595019E-1;1,012044334E1
5,191405908E1;-4,187439568E-3;-6,616154313E-1;9,777671814E0
5,201405908E1;1,674975827E-2;-6,723831892E-1;9,738788605E0
5,211405908E1;5,862415582E-2;-5,682953596E-1;9,678967476E0
5,221405908E1;4,426721856E-2;-5,036891699E-1;9,803992271E0
5,231405908E1;4,067798331E-2;-4,642075896E-1;9,959526062E0
5,241405908E1;-7,776673418E-3;-5,335994363E-1;9,956535339E0
5,251405908E1;-1,076770201E-2;-5,365904570E-1;9,873982430E0
5,261405908E1;-2,333002165E-2;-6,729813814E-1;9,766305923E0
5,271405908E1;5,982056609E-4;-6,544370055E-1;9,765109062E0
5,281405908E1;3,050848842E-2;-6,323033571E-1;9,802796364E0
5,291405908E1;3,888336942E-2;-5,611169338E-1;9,831509590E0
5,301405908E1;4,725824669E-2;-4,767699242E-1;9,824930191E0
5,311405908E1;5,982056609E-4;-4,797609448E-1;9,817152977E0
5,321405908E1;-1,196411345E-2;-5,712863803E-1;9,745368004E0
5,331405908E1;6,580262445E-3;-6,329016089E-1;9,678967476E0
5,341405908E1;1,178465188E-1;-6,574280262E-1;9,713065147E0
5,351405908E1;6,640082598E-2;-6,406782866E-1;9,733404160E0
5,361405908E1;2,093719877E-2;-4,815555513E-1;1,036750221E1
5,371405908E1;3,589234129E-2;-4,319044948E-1;1,025803089E1
5,381405908E1;7,357929647E-2;-5,611169338E-1;9,646066666E0
5,391405908E1;1,351944804E-1;-5,862415433E-1;9,403793335E0
5,401405908E1;1,010967568E-1;-6,664010882E-1;9,224330902E0
5,411405908E1;1,633101404E-1;-5,276173949E-1;9,519247055E0
5,421405908E1;1,950150430E-1;-4,905286431E-1;1,026640511E1
5,431405908E1;1,154536903E-1;-4,229314029E-1;1,024128056E1
5,441405908E1;2,410768867E-1;-6,107679605E-1;9,838688850E0
5,451405908E1;2,769692242E-1;-5,449653864E-1;9,534201622E0
5,461405908E1;3,517449200E-1;-6,257231236E-1;9,458230019E0
5,471405908E1;4,073780477E-1;-6,508477330E-1;9,394820213E0
5,481405908E1;2,937189937E-1;-5,102694035E-1;9,494720459E0
5,491405908E1;2,338984162E-1;-3,726821244E-1;9,908679008E0
5,501405908E1;2,057827413E-1;-3,702892959E-1;9,945169449E0
5,511405908E1;1,986042857E-1;-5,288137794E-1;9,821938515E0
5,521405908E1;2,416750938E-1;-6,801598072E-1;9,672985077E0
5,531405908E1;3,906283081E-1;-5,940182209E-1;9,708279610E0
5,541405908E1;4,319044948E-1;-4,989035130E-1;9,626923561E0
5,551405908E1;4,534398913E-1;-3,457628787E-1;9,925428391E0
5,561405908E1;4,271188378E-1;-3,433700502E-1;9,964311600E0
5,571405908E1;3,613162339E-1;-4,139583111E-1;9,701101303E0
5,581405908E1;3,332005441E-1;-4,480560422E-1;9,494122505E0
5,591405908E1;4,049852192E-1;-5,539384484E-1;9,367302895E0
5,601405908E1;4,504488707E-1;-5,288137794E-1;9,495916367E0
5,611405908E1;4,546363056E-1;-4,085744619E-1;9,875777245E0
5,621405908E1;4,737788737E-1;-3,744767308E-1;1,014257717E1
5,631405908E1;4,695914388E-1;-3,433700502E-1;1,015454102E1
5,641405908E1;4,809573591E-1;-3,786641955E-1;9,810572624E0
5,651405908E1;4,462614357E-1;-4,588237405E-1;9,497113228E0
5,661405908E1;3,906283081E-1;-4,725824594E-1;9,379266739E0
5,671405908E1;4,247260094E-1;-3,780659735E-1;9,603593826E0
5,681405908E1;3,954139352E-1;-4,079762697E-1;9,926624298E0
5,691405908E1;3,846462369E-1;-3,541377485E-1;1,015334511E1
5,701405908E1;3,649054468E-1;-3,529413342E-1;1,001156998E1
5,711405908E1;4,187439680E-1;-3,672982752E-1;9,692726135E0
5,721405908E1;4,929214716E-1;-4,378865361E-1;9,562915802E0
5,731405908E1;4,845465720E-1;-4,648058116E-1;9,509077072E0
5,741405908E1;5,335994363E-1;-3,517449200E-1;9,764511108E0
5,751405908E1;4,743770957E-1;-3,708875179E-1;9,881160736E0
5,761405908E1;4,869394004E-1;-2,865405083E-1;9,933204651E0
5,771405908E1;3,601198196E-1;-3,822534084E-1;9,670592308E0
5,781405908E1;4,402793646E-1;-3,469592929E-1;9,774680138E0
5,791405908E1;4,851447940E-1;-4,007977843E-1;9,868000984E0
5,801405908E1;5,084748268E-1;-3,128615618E-1;9,968499184E0
5,811405908E1;6,065805554E-1;-2,919243574E-1;9,899106979E0
5,821405908E1;4,869394004E-1;-3,391826153E-1;9,498309135E0
5,831405908E1;5,294120312E-1;-4,348955154E-1;9,446864128E0
5,841405908E1;4,761717021E-1;-3,882354796E-1;9,499505997E0
5,851405908E1;5,485545993E-1;-3,487538993E-1;9,593423843E0
5,861405908E1;4,749752879E-1;-3,224328458E-1;9,874580383E0
5,871405908E1;4,977070987E-1;-3,014956415E-1;9,966106415E0
5,881405908E1;4,295116663E-1;-2,859423161E-1;9,954142570E0
5,891405908E1;4,683950245E-1;-3,595215976E-1;9,906884193E0
5,901405908E1;3,762713671E-1;-4,235295951E-1;9,779465675E0
5,911405908E1;4,325026870E-1;-4,247260094E-1;9,736394882E0
5,921405908E1;4,839483798E-1;-2,901297510E-1;9,632308006E0
5,931405908E1;5,730810165E-1;-2,685943544E-1;9,593423843E0
5,941405908E1;6,011967063E-1;-2,219343036E-1;9,772886276E0
5,951405908E1;5,515456200E-1;-2,907279432E-1;9,789037704E0
5,961405908E1;4,863412082E-1;-3,816552162E-1;9,711270332E0
5,971405908E1;4,193421602E-1;-4,013960063E-1;9,702896118E0
5,981405908E1;4,887340367E-1;-3,080759048E-1;9,796216011E0
5,991405908E1;5,958128572E-1;-2,458625287E-1;9,856036186E0
6,001405908E1;5,688936114E-1;-2,566302419E-1;9,815957069E0
6,011405908E1;5,557330847E-1;-3,098705411E-1;9,627521515E0
6,021405908E1;5,264210105E-1;-3,182454109E-1;9,539586067E0
6,031405908E1;4,785645306E-1;-2,799602449E-1;9,724431038E0
6,041405908E1;4,911268353E-1;-2,895315289E-1;9,943374634E0
6,051405908E1;5,228317380E-1;-2,656033039E-1;1,001216793E1
6,061405908E1;5,850451589E-1;-3,032902777E-1;9,932606697E0
6,071405908E1;5,958128572E-1;-3,164508045E-1;9,826126099E0
6,081405908E1;5,868397355E-1;-3,104687333E-1;9,691530228E0
6,091405908E1;5,347958803E-1;-2,907279432E-1;9,572486877E0
6,101405908E1;5,425725579E-1;-2,745763958E-1;9,641879082E0
6,111405908E1;5,180460811E-1;-2,530409992E-1;9,803394318E0
6,121405908E1;5,365904570E-1;-2,416750938E-1;9,859027863E0
6,131405908E1;5,371887088E-1;-3,200400174E-1;9,870393753E0
6,141405908E1;5,682953596E-1;-3,810569942E-1;9,899705887E0
6,151405908E1;5,252245665E-1;-2,871387303E-1;9,929018021E0
6,161405908E1;5,347958803E-1;-2,620140910E-1;9,857831001E0
6,171405908E1;5,676971674E-1;-2,249253243E-1;9,821340561E0
6,181405908E1;5,413761139E-1;-2,368894368E-1;9,831509590E0
6,191405908E1;5,174478889E-1;-3,128615618E-1;9,685547829E0
6,201405908E1;5,425725579E-1;-3,260220885E-1;9,705288887E0
6,211405908E1;5,383850932E-1;-3,649054468E-1;9,790832520E0
6,221405908E1;5,611169338E-1;-3,080759048E-1;9,819545746E0
6,231405908E1;5,419743061E-1;-2,865405083E-1;9,942177773E0
6,241405908E1;5,515456200E-1;-2,751746178E-1;9,945767403E0
6,251405908E1;4,636093974E-1;-3,415754437E-1;9,708279610E0
6,261405908E1;5,754738450E-1;-3,104687333E-1;9,859027863E0
6,271405908E1;6,819544435E-1;-3,332005441E-1;9,886545181E0
6,281405908E1;5,694918036E-1;-3,140579760E-1;9,776474953E0
6,291405908E1;5,419743061E-1;-3,403790295E-1;9,725627899E0
6,301405908E1;5,383850932E-1;-2,847459018E-1;9,847063065E0
6,311405908E1;5,497509837E-1;-3,116651475E-1;9,839286804E0
6,321405908E1;6,047859192E-1;-3,577269912E-1;9,856036186E0
6,331405908E1;5,904290080E-1;-2,943171859E-1;9,814760208E0
6,341405908E1;6,125625968E-1;-3,050848842E-1;9,890732765E0
6,351405908E1;5,670989752E-1;-3,206382394E-1;9,891928673E0
6,361405908E1;6,436693072E-1;-3,164508045E-1;9,839884758E0
6,371405908E1;5,539384484E-1;-4,133601189E-1;9,879366875E0
6,381405908E1;6,149554253E-1;-3,499503136E-1;9,817152977E0
6,391405908E1;5,383850932E-1;-2,955136001E-1;9,750752449E0
6,401405908E1;5,347958803E-1;-2,997010350E-1;9,802198410E0
6,411405908E1;5,994020700E-1;-3,343969584E-1;9,865009308E0
6,421405908E1;6,071787477E-1;-3,529413342E-1;9,921240807E0
6,431405908E1;6,329016089E-1;-3,176472187E-1;9,886545181E0
6,441405908E1;5,581258535E-1;-3,385843933E-1;9,924231529E0
6,451405908E1;6,358926296E-1;-3,930211067E-1;9,983454704E0
6,461405908E1;6,705885530E-1;-3,834498227E-1;9,756733894E0
6,471405908E1;6,723831892E-1;-3,188436031E-1;9,807581902E0
6,481405908E1;7,794619799E-1;-2,793620527E-1;9,888339996E0
6,491405908E1;7,040880919E-1;-4,055834413E-1;9,680762291E0
6,501405908E1;6,179464459E-1;-4,097708762E-1;9,603593826E0
6,511405908E1;5,485545993E-1;-3,667000830E-1;9,962516785E0
6,521405908E1;5,784648657E-1;-3,320041299E-1;1,016171932E1
6,531405908E1;6,442674994E-1;-2,961117923E-1;1,010369396E1
6,541405908E1;6,628118753E-1;-3,565305769E-1;1,006002426E1
6,551405908E1;6,969096065E-1;-3,278166950E-1;9,800403595E0
6,561405908E1;7,118647099E-1;-3,493520916E-1;9,609575272E0
6,571405908E1;7,292127013E-1;-4,037888348E-1;9,506684303E0
6,581405908E1;6,903293133E-1;-4,037888348E-1;9,591629982E0
6,591405908E1;6,484549642E-1;-3,804588020E-1;9,739984512E0
6,601405908E1;6,771687865E-1;-3,523431420E-1;9,850054741E0
6,611405908E1;6,771687865E-1;-3,978067636E-1;9,988838196E0
6,621405908E1;7,112665176E-1;-4,139583111E-1;9,933803558E0
6,631405908E1;6,885347366E-1;-3,942175210E-1;9,892526627E0
6,641405908E1;6,705885530E-1;-3,667000830E-1;9,787840843E0
6,651405908E1;6,059823632E-1;-3,720839322E-1;9,591031075E0
6,661405908E1;6,191428304E-1;-3,894318938E-1;9,573683739E0
6,671405908E1;6,927221417E-1;-3,439682424E-1;9,643673897E0
6,681405908E1;6,957131624E-1;-3,403790295E-1;9,730413437E0
6,691405908E1;7,196413875E-1;-3,290131092E-1;9,835697174E0
6,701405908E1;7,154539824E-1;-3,672982752E-1;9,862018585E0
6,711405908E1;6,915257573E-1;-3,780659735E-1;9,858428955E0
6,721405908E1;6,837490797E-1;-3,792623878E-1;9,808777809E0
6,731405908E1;6,143572330E-1;-3,678964674E-1;9,640084267E0
6,741405908E1;7,034898400E-1;-3,236292601E-1;9,625727654E0
6,751405908E1;6,586244106E-1;-3,122633696E-1;9,618548393E0
6,761405908E1;6,873382926E-1;-3,391826153E-1;9,700503349E0
6,771405908E1;6,687939167E-1;-3,415754437E-1;9,759725571E0
6,781405908E1;7,573283911E-1;-3,361915946E-1;9,899106979E0
6,791405908E1;7,471588850E-1;-3,385843933E-1;9,897911072E0
6,801405908E1;8,033902049E-1;-3,361915946E-1;9,823135376E0
6,811405908E1;7,920243144E-1;-2,997010350E-1;9,731609344E0
6,821405908E1;7,585247755E-1;-2,961117923E-1;9,623334885E0
6,831405908E1;7,268198729E-1;-3,248256743E-1;9,628718376E0
6,841405908E1;5,730810165E-1;-3,457628787E-1;9,533603668E0
6,851405908E1;7,052844763E-1;-3,828516304E-1;9,533603668E0
6,861405908E1;7,674978375E-1;-2,452643216E-1;1,002293587E1
6,871405908E1;8,590233326E-1;-3,116651475E-1;1,002652550E1
6,881405908E1;7,070791125E-1;-3,242274821E-1;9,818349838E0
6,891405908E1;7,435696125E-1;-3,206382394E-1;9,807581902E0
6,901405908E1;6,394818425E-1;-2,895315289E-1;9,808179855E0
6,911405908E1;4,977070987E-1;-3,044866920E-1;9,535398483E0
6,921405908E1;5,922235847E-1;-3,493520916E-1;9,529416084E0
6,931405908E1;6,245267391E-1;-3,068794906E-1;9,632905960E0
6,941405908E1;7,794619799E-1;-1,932204217E-1;9,922437668E0
6,951405908E1;7,028916478E-1;-2,338984162E-1;1,001874828E1
6,961405908E1;5,760720372E-1;-3,816552162E-1;9,775279045E0
6,971405908E1;6,233302951E-1;-3,649054468E-1;9,630513191E0
6,981405908E1;7,070791125E-1;-3,343969584E-1;9,600603104E0
6,991405908E1;7,046862841E-1;-2,051845491E-1;9,853045464E0
7,001405908E1;6,556333899E-1;-1,740778536E-1;9,896714211E0
7,011405908E1;5,473581553E-1;-1,076770201E-1;9,863214493E0
7,021405908E1;5,144568682E-1;-1,974078715E-1;9,812367439E0
7,031405908E1;4,199403822E-1;-2,458625287E-1;9,752547264E0
7,041405908E1;4,630111754E-1;-2,051845491E-1;9,733404160E0
7,051405908E1;5,276173949E-1;-1,274178028E-1;9,751948357E0
7,061405908E1;5,760720372E-1;-5,802594870E-2;9,655637741E0
7,071405908E1;4,145565331E-1;-2,991028363E-3;9,771689415E0
7,081405908E1;4,522434771E-1;-5,383851007E-3;9,870991707E0
7,091405908E1;3,206382394E-1;-1,674975827E-2;9,878170013E0
7,101405908E1;3,068794906E-1;-5,862415582E-2;9,894919395E0
7,111405908E1;3,074777126E-1;-3,589234129E-2;9,942776680E0
7,121405908E1;3,272185028E-1;-7,776673418E-3;9,951749802E0
7,131405908E1;3,385843933E-1;-5,443671346E-2;9,820143700E0
7,141405908E1;2,793620527E-1;-5,204389244E-2;9,783055305E0
7,151405908E1;1,998006850E-1;-4,905286431E-2;9,684351921E0
7,161405908E1;1,794617027E-1;-2,691925503E-2;9,690931320E0
7,171405908E1;1,501496136E-1;-6,460621208E-2;9,879366875E0
7,181405908E1;7,178468257E-2;-3,409772366E-2;9,930811882E0
7,191405908E1;6,161518395E-2;-5,264209956E-2;9,952945709E0
7,201405908E1;2,632104978E-2;-7,298108935E-2;9,950552940E0
7,211405908E1;4,905286431E-2;-9,451649338E-2;9,822537422E0
7,221405908E1;1,794616925E-3;-8,554340899E-2;9,778269768E0
7,231405908E1;-3,170489892E-2;-4,247260094E-2;9,680762291E0
7,241405908E1;-1,118644550E-1;-3,290131316E-2;9,720243454E0
7,251405908E1;-1,920240223E-1;-7,597211748E-2;9,787840843E0
7,261405908E1;-1,860419661E-1;-6,879365444E-2;9,955936432E0
7,271405908E1;-2,075773627E-1;-6,460621208E-2;9,958329201E0
7,281405908E1;-3,266202807E-1;-1,052841991E-1;9,952347755E0
7,291405908E1;-3,529413342E-1;-7,058826834E-2;9,868598938E0
7,301405908E1;-3,278166950E-1;-1,010967568E-1;9,728618622E0
7,311405908E1;-3,314059377E-1;-5,204389244E-2;9,748359680E0
7,321405908E1;-3,726821244E-1;2,991028363E-3;9,836894035E0
7,331405908E1;-4,977070987E-1;-5,742774159E-2;9,828518867E0
7,341405908E1;-5,599204898E-1;-1,118644550E-1;9,728618622E0
7,351405908E1;-5,060819983E-1;-1,417747438E-1;9,693922997E0
7,361405908E1;-5,676971674E-1;-1,298106313E-1;9,835697174E0
7,371405908E1;-6,317051649E-1;-7,417750359E-2;9,932008743E0
7,381405908E1;-6,717849374E-1;-2,093719877E-2;9,879964828E0
7,391405908E1;-7,531409264E-1;-1,734796353E-2;9,927223206E0
7,401405908E1;-7,716853023E-1;-7,058826834E-2;9,741779327E0
7,411405908E1;-6,538388133E-1;-1,148554832E-1;9,650253296E0
7,421405908E1;-6,963114142E-1;-1,238285750E-1;9,619147301E0
7,431405908E1;-6,562315822E-1;-7,776673883E-2;9,873982430E0
7,441405908E1;-8,081758618E-1;-4,187439568E-3;9,949954987E0
7,451405908E1;-8,333004713E-1;-3,110669367E-2;9,979865074E0
7,461405908E1;-9,541380405E-1;-8,853443712E-2;9,735198975E0
7,471405908E1;-9,780662656E-1;-5,742774159E-2;9,683753014E0
7,481405908E1;-9,146564603E-1;-7,058826834E-2;9,652647018E0
7,491405908E1;-9,373882413E-1;-2,572284266E-2;9,885348320E0
7,501405908E1;-9,086744189E-1;1,495514158E-2;9,882955551E0
7,511405908E1;-8,871390224E-1;-5,144568533E-2;9,777072906E0
7,521405908E1;-8,500502706E-1;-5,922235921E-2;9,865608215E0
7,531405908E1;-9,391828775E-1;-3,948157281E-2;9,805787086E0
7,541405908E1;-9,332008362E-1;-3,050848842E-2;9,832108498E0
7,551405908E1;-9,409775138E-1;-1,914258115E-2;9,818947792E0
7,561405908E1;-9,762716293E-1;-2,991028316E-2;9,816555023E0
7,571405908E1;-9,672985673E-1;-6,101697683E-2;9,839884758E0
7,581405908E1;-8,775677085E-1;-5,024927482E-2;9,854242325E0
7,591405908E1;-9,140582681E-1;-7,298108935E-2;9,736993790E0
7,601405908E1;-8,261220455E-1;-4,845465720E-2;9,738189697E0
7,611405908E1;-9,828519225E-1;-4,366901144E-2;9,836894035E0
7,621405908E1;-1,067198873E0;-2,632104978E-2;1,000678444E1
7,631405908E1;-1,054038405E0;1,914258115E-2;1,012762165E1
7,641405908E1;-1,027119160E0;-8,853443712E-2;9,821340561E0
7,651405908E1;-1,019342422E0;-1,256231815E-1;9,711270332E0
7,661405908E1;-9,475577474E-1;-7,537391037E-2;9,686145782E0
7,671405908E1;-1,051645517E0;-6,221338734E-2;9,690931320E0
7,681405908E1;-9,888339639E-1;-5,024927482E-2;9,860821724E0
7,691405908E1;-1,091127157E0;1,674975827E-2;9,842875481E0
7,701405908E1;-9,906286001E-1;0,000000000E0;1,008694363E1
7,711405908E1;-9,505487680E-1;-1,363908947E-1;9,994820595E0
7,721405908E1;-9,236295223E-1;-1,615155339E-1;9,954740524E0
7,731405908E1;-9,631111026E-1;-4,546362907E-2;9,815358162E0
7,741405908E1;-1,010369420E0;-2,811566554E-2;9,711869240E0
7,751405908E1;-9,559326172E-1;9,571290575E-3;9,665208817E0
7,761405908E1;-9,631111026E-1;-4,965107143E-2;9,648459435E0
7,771405908E1;-1,019342422E0;-5,563312769E-2;9,703494072E0
7,781405908E1;-1,010369420E0;-1,238285750E-1;9,910472870E0
7,791405908E1;-1,025922656E0;-1,034895778E-1;9,937392235E0
7,801405908E1;-9,774680734E-1;-4,666004330E-2;9,752547264E0
7,811405908E1;-1,013360381E0;-5,682953820E-2;9,555737495E0
7,821405908E1;-9,834501147E-1;-6,340979785E-2;9,728618622E0
7,831405908E1;-1,026520967E0;7,118647546E-2;1,011386299E1
7,841405908E1;-9,900303483E-1;7,417750359E-2;1,042792130E1
7,851405908E1;-1,128215909E0;-5,982056609E-4;1,016650486E1
7,861405908E1;-1,270588875E0;-1,591227055E-1;9,606584549E0
7,871405908E1;-1,076171994E0;-1,914258152E-1;9,516854286E0
7,881405908E1;-1,089930773E0;-9,092725813E-2;9,439086914E0
7,891405908E1;-1,028315544E0;6,759724021E-2;9,649655342E0
7,901405908E1;-1,060020447E0;1,435693651E-1;9,993025780E0
7,911405908E1;-1,065404296E0;7,776673418E-3;9,929018021E0
7,921405908E1;-1,033699393E0;-2,231307179E-1;1,013061333E1
7,931405908E1;-1,022931695E0;-2,644068897E-1;9,974481583E0
7,941405908E1;-9,379864931E-1;-9,032905847E-2;9,916455269E0
7,951405908E1;-1,042074203E0;-6,819544733E-2;9,622735977E0
7,961405908E1;-1,019342422E0;9,990034252E-2;9,808777809E0
7,971405908E1;-1,076171994E0;6,221338734E-2;9,598209381E0
7,981405908E1;-1,113260746E0;-8,913264424E-2;9,677172661E0
7,991405908E1;-1,109073281E0;-9,930214286E-2;9,860821724E0
8,001405908E1;-1,088136077E0;-1,058823988E-1;1,002712345E1
8,011405908E1;-1,066002488E0;-4,067798331E-2;1,000199890E1
8,021405908E1;-1,012762189E0;5,922235921E-2;9,924231529E0
8,031405908E1;-1,021735311E0;8,793623000E-2;9,710672379E0
8,041405908E1;-1,153938770E0;-7,178467698E-3;9,674779892E0
8,051405908E1;-1,060618639E0;-1,052841991E-1;9,825528145E0
8,061405908E1;-1,091725349E0;-1,190429255E-1;9,953543663E0
8,071405908E1;-1,024128079E0;-3,529413417E-2;9,998409271E0
8,081405908E1;-9,816554785E-1;2,333002165E-2;1,011685371E1
8,091405908E1;-1,122832060E0;-4,007977992E-2;9,931410789E0
8,101405908E1;-1,034895778E0;4,426721856E-2;9,985847473E0
8,111405908E1;-9,894321561E-1;9,571290575E-3;9,835099220E0
8,121405908E1;-1,013360381E0;-9,571290761E-2;9,820742607E0
8,131405908E1;-9,661021233E-1;-1,076770201E-1;9,759725571E0
8,141405908E1;-1,003190875E0;-1,525424421E-1;9,795019150E0
8,151405908E1;-8,291130662E-1;7,776673418E-3;1,003729248E1
8,161405908E1;-1,057627559E0;2,392822644E-3;9,897911072E0
8,171405908E1;-9,320043921E-1;6,999006122E-2;1,022393322E1
8,181405908E1;-9,780662656E-1;-1,196411322E-3;1,004028416E1
8,191405908E1;-9,002995491E-1;-1,423729509E-1;9,834501266E0
8,201405908E1;-8,279166222E-1;-2,075773627E-1;9,577272415E0
8,211405908E1;-8,542376757E-1;-2,087737769E-1;9,544969559E0
8,221405908E1;-8,512466550E-1;4,366901144E-2;1,009591675E1
8,231405908E1;-9,756734371E-1;2,273181453E-2;1,011147022E1
8,241405908E1;-8,931210637E-1;1,854437590E-2;1,014616585E1
8,251405908E1;-7,573283911E-1;-1,890329868E-1;1,004387283E1
8,261405908E1;-6,921239495E-1;-2,045863420E-1;9,801001549E0
8,271405908E1;-6,382854581E-1;-1,716850251E-1;9,848259926E0
8,281405908E1;-6,454638839E-1;-8,673982322E-2;9,693922997E0
8,291405908E1;-6,185446382E-1;-5,742774159E-2;9,729216576E0
8,301405908E1;-6,281159520E-1;-5,862415582E-2;9,769894600E0
8,311405908E1;-5,479564071E-1;-1,124626622E-1;9,912865639E0
8,321405908E1;-4,995017350E-1;-2,051845491E-1;1,012941647E1
8,331405908E1;-5,413761139E-1;-1,722832322E-1;1,020299530E1
8,341405908E1;-5,240281820E-1;-1,447657645E-1;1,016291618E1
8,351405908E1;-5,413761139E-1;-8,554340899E-2;1,007079220E1
8,361405908E1;-4,366901219E-1;-1,040877849E-1;9,683155060E0
8,371405908E1;-3,756731451E-1;-8,135596663E-2;9,613164902E0
8,381405908E1;-3,864408433E-1;-8,315058798E-2;9,734601021E0
8,391405908E1;-3,379862010E-1;-3,170489892E-2;9,839884758E0
8,401405908E1;-2,596212626E-1;-1,615155302E-2;1,011386299E1
8,411405908E1;-2,321037948E-1;3,589233849E-3;1,012821960E1
8,421405908E1;-2,135594189E-1;6,460621208E-2;1,005703354E1
8,431405908E1;-1,950150430E-1;9,451649338E-2;9,969097137E0
8,441405908E1;-1,621137410E-1;1,782652885E-1;9,764511108E0
8,451405908E1;-1,752742529E-1;1,962114573E-1;9,754940033E0
8,461405908E1;-8,315058798E-2;2,506481707E-1;9,802198410E0
8,471405908E1;-1,495514158E-2;2,715853751E-1;9,917651176E0
8,481405908E1;-2,512463741E-2;2,667997181E-1;1,002831936E1
8,491405908E1;5,623133108E-2;3,804588020E-1;1,018445110E1
8,501405908E1;3,649054468E-2;3,990031779E-1;1,010488987E1
8,511405908E1;1,016949583E-2;4,211367965E-1;9,963713646E0
8,521405908E1;-2,392822644E-3;4,031906128E-1;9,867402077E0
8,531405908E1;-2,632104978E-2;4,253242314E-1;9,579665184E0
8,541405908E1;1,196411345E-2;4,516452849E-1;9,624530792E0
8,551405908E1;3,290131316E-2;4,695914388E-1;9,863813400E0
8,561405908E1;-1,076770201E-2;4,737788737E-1;9,979865074E0
8,571405908E1;-3,409772366E-2;4,187439680E-1;1,012582684E1
8,581405908E1;-2,213360928E-2;4,516452849E-1;1,023649502E1
8,591405908E1;-4,666004330E-2;4,480560422E-1;1,001276588E1
8,601405908E1;-4,247260094E-2;4,468596280E-1;9,882357597E0
8,611405908E1;3,050848842E-2;4,701896608E-1;9,590433121E0
8,621405908E1;-4,127619043E-2;3,302095234E-1;9,412167549E0
8,631405908E1;-1,914258115E-2;3,571287692E-1;9,819545746E0
8,641405908E1;3,230310604E-2;4,366901219E-1;1,019462109E1
8,651405908E1;6,580262631E-2;3,158525825E-1;1,011625576E1
8,661405908E1;9,571290761E-2;2,662015259E-1;9,943972588E0
8,671405908E1;5,144568533E-2;1,668993831E-1;9,634700775E0
8,681405908E1;4,007977992E-2;1,609173268E-1;9,579665184E0
8,691405908E1;1,256231871E-2;2,219343036E-1;9,623932838E0
8,701405908E1;5,682953820E-2;2,404786795E-1;9,856036186E0
8,711405908E1;-6,340979785E-2;2,309073806E-1;9,748957634E0
8,721405908E1;-9,451649338E-2;3,589234129E-2;9,841081619E0
8,731405908E1;-6,819544733E-2;-1,435693540E-2;9,994820595E0
8,741405908E1;-5,024927482E-2;8,494520187E-2;1,003071213E1
8,751405908E1;-1,375873014E-2;1,202393398E-1;9,964909554E0
8,761405908E1;3,290131316E-2;1,190429255E-1;9,795618057E0
8,771405908E1;4,546362907E-2;1,292124242E-1;9,692128181E0
8,781405908E1;2,213360928E-2;6,221338734E-2;9,557532310E0
8,791405908E1;1,495514158E-2;7,178467698E-3;9,563513756E0
8,801405908E1;-2,991028316E-2;5,862415582E-2;9,779465675E0
8,811405908E1;-1,854437590E-2;4,366901144E-2;9,865608215E0
8,821405908E1;-3,409772366E-2;1,854437590E-2;1,006959629E1
8,831405908E1;-7,178467698E-3;1,914258115E-2;1,011625576E1
8,841405908E1;2,033899166E-2;2,093719877E-2;9,916455269E0
8,851405908E1;3,469592705E-2;2,452643216E-2;9,786644936E0
8,861405908E1;6,759724021E-2;-2,751746029E-2;9,552745819E0
8,871405908E1;4,606183618E-2;1,794617064E-2;9,547960281E0
8,881405908E1;1,256231871E-2;-1,555334684E-2;9,687342644E0
8,891405908E1;4,785645287E-3;-4,127619043E-2;9,762716293E0
8,901405908E1;-5,084748194E-2;-7,178467698E-3;9,988838196E0
8,911405908E1;-6,520441920E-2;-3,050848842E-2;9,985248566E0
8,921405908E1;-3,170489892E-2;-6,580262631E-2;9,930811882E0
8,931405908E1;-4,426721856E-2;-7,118647546E-2;9,872786522E0
8,941405908E1;-2,512463741E-2;-3,469592705E-2;9,741779327E0
8,951405908E1;8,973085321E-3;-8,494520187E-2;9,678369522E0
8,961405908E1;-1,495514158E-2;-2,213360928E-2;9,664012909E0
8,971405908E1;-2,691925503E-2;-6,580262631E-2;9,879964828E0
8,981405908E1;-1,914258115E-2;-3,708875179E-2;9,968499184E0
8,991405908E1;-5,204389244E-2;-9,032905847E-2;9,924231529E0
9,001405908E1;-1,375873014E-2;-1,423729509E-1;9,864411354E0
9,011405908E1;1,196411322E-3;-1,100698411E-1;9,752547264E0
9,021405908E1;8,973085321E-3;-1,130608693E-1;9,669396400E0
9,031405908E1;2,153540403E-2;-7,058826834E-2;9,736394882E0
9,041405908E1;2,273181453E-2;-7,537391037E-2;9,753145218E0
9,051405908E1;1,196411322E-3;-8,494520187E-2;9,728618622E0
9,061405908E1;-5,084748194E-2;-1,124626622E-1;9,828518867E0
9,071405908E1;-6,819544733E-2;-1,513460279E-1;9,928419113E0
9,081405908E1;-5,204389244E-2;-1,112662554E-1;9,975677490E0
9,091405908E1;4,965107143E-2;-1,130608693E-1;9,853643417E0
9,101405908E1;7,836493850E-2;-6,101697683E-2;9,784850121E0
9,111405908E1;4,666004330E-2;-6,580262631E-2;9,684949875E0
9,121405908E1;2,213360928E-2;-9,092725813E-2;9,681360245E0
9,131405908E1;1,016949583E-2;-1,567298770E-1;9,735198975E0
9,141405908E1;-2,033899166E-2;-2,009970993E-1;9,760921478E0
9,151405908E1;-6,041877344E-2;-2,392822653E-1;9,859625816E0
9,161405908E1;-3,649054468E-2;-2,919243574E-1;9,792028427E0
9,171405908E1;-4,247260094E-2;-3,014956415E-1;9,911071777E0
9,181405908E1;-4,187439755E-2;-3,182454109E-1;9,922437668E0
9,191405908E1;-4,785645287E-3;-2,769692242E-1;9,826724052E0
9,201405908E1;1,674975827E-2;-3,086741269E-1;9,736993790E0
9,211405908E1;1,974078640E-2;-3,188436031E-1;9,654440880E0
9,221405908E1;1,974078640E-2;-3,314059377E-1;9,701101303E0
9,231405908E1;-6,580262445E-3;-3,469592929E-1;9,809376717E0
9,241405908E1;4,187439568E-3;-2,410768867E-1;1,009113121E1
9,251405908E1;4,546362907E-2;-2,446661144E-1;1,003430176E1
9,261405908E1;2,931207791E-2;-3,062812984E-1;9,817152977E0
9,271405908E1;3,110669367E-2;-3,732803464E-1;9,723235130E0
9,281405908E1;2,691925503E-2;-3,948157430E-1;9,592825890E0
9,291405908E1;4,067798331E-2;-3,834498227E-1;9,522237778E0
9,301405908E1;4,845465720E-2;-3,966103494E-1;9,608977318E0
9,311405908E1;6,101697683E-2;-3,547359705E-1;9,710672379E0
9,321405908E1;3,888336942E-2;-2,913261652E-1;9,882357597E0
9,331405908E1;8,973085321E-3;-2,644068897E-1;9,968499184E0
9,341405908E1;5,982056726E-3;-2,805584669E-1;1,007198906E1
9,351405908E1;-3,649054468E-2;-2,338984162E-1;1,000498962E1
9,361405908E1;9,571290575E-3;-3,254238665E-1;9,789635658E0
9,371405908E1;1,136590727E-2;-3,104687333E-1;9,710074425E0
9,381405908E1;4,067798331E-2;-2,997010350E-1;9,579665184E0
9,391405908E1;4,247260094E-2;-3,260220885E-1;9,625727654E0
9,401405908E1;5,982056609E-4;-3,385843933E-1;9,832108498E0
9,411405908E1;-2,033899166E-2;-3,667000830E-1;9,881759644E0
9,421405908E1;-6,999006122E-2;-3,774677813E-1;1,001336479E1
9,431405908E1;-6,101697683E-2;-4,408775866E-1;9,964909554E0
9,441405908E1;-1,495514158E-2;-4,331009090E-1;9,894919395E0
9,451405908E1;2,333002165E-2;-4,175475538E-1;9,785448074E0
9,461405908E1;2,572284266E-2;-3,684946895E-1;9,694520950E0
9,471405908E1;8,673982322E-2;-3,553341627E-1;9,706484795E0
9,481405908E1;5,802594870E-2;-3,882354796E-1;9,783055305E0
9,491405908E1;7,238288224E-2;-3,822534084E-1;9,934401512E0
9,501405908E1;9,451649338E-2;-4,283152521E-1;9,894321442E0
9,511405908E1;1,064806059E-1;-4,235295951E-1;9,859625816E0
9,521405908E1;9,990034252E-2;-4,336991012E-1;9,834501266E0
9,531405908E1;9,930214286E-2;-3,822534084E-1;9,735198975E0
9,541405908E1;9,810572863E-2;-3,684946895E-1;9,690931320E0
9,551405908E1;5,503492057E-2;-3,451646566E-1;9,707083702E0
9,561405908E1;5,204389244E-2;-3,649054468E-1;9,723235130E0
9,571405908E1;5,623133108E-2;-3,858426511E-1;9,748359680E0
9,581405908E1;2,751746029E-2;-4,408775866E-1;9,808777809E0
9,591405908E1;-2,153540403E-2;-4,307080805E-1;9,900901794E0
9,601405908E1;8,494520187E-2;-4,043870270E-1;9,918250084E0
9,611405908E1;5,024927482E-2;-3,930211067E-1;9,777072906E0
9,621405908E1;8,374879137E-3;-3,541377485E-1;9,764511108E0
9,631405908E1;-1,489532143E-1;-3,702892959E-1;9,618548393E0
9,641405908E1;-1,022931710E-1;-4,109672904E-1;9,696315765E0
9,651405908E1;-9,092725813E-2;-4,091726840E-1;9,818349838E0
9,661405908E1;-4,486542568E-2;-3,577269912E-1;9,870393753E0
9,671405908E1;-1,615155302E-2;-3,583251834E-1;9,948160172E0
9,681405908E1;-3,708875179E-2;-3,589234054E-1;9,975079536E0
9,691405908E1;-4,785645381E-2;-3,589234054E-1;9,807581902E0
9,701405908E1;-1,435693540E-2;-3,571287692E-1;9,719645500E0
9,711405908E1;-4,247260094E-2;-3,840480447E-1;9,663414001E0
9,721405908E1;-3,948157281E-2;-3,990031779E-1;9,653244972E0
9,731405908E1;-4,127619043E-2;-3,870390654E-1;9,733404160E0
9,741405908E1;-2,452643216E-2;-4,055834413E-1;9,881160736E0
9,751405908E1;-3,110669367E-2;-3,559323549E-1;9,991230965E0
9,761405908E1;-2,273181453E-2;-3,894318938E-1;9,965508461E0
9,771405908E1;-2,691925503E-2;-3,966103494E-1;9,868598938E0
9,781405908E1;-1,854437590E-2;-3,852444589E-1;9,674779892E0
9,791405908E1;-2,333002165E-2;-3,822534084E-1;9,634101868E0
9,801405908E1;-2,033899166E-2;-4,079762697E-1;9,614361763E0
9,811405908E1;2,093719877E-2;-3,577269912E-1;9,635298729E0
9,821405908E1;-2,153540403E-2;-3,804588020E-1;9,870991707E0
9,831405908E1;-4,486542568E-2;-3,391826153E-1;1,008814049E1
9,841405908E1;-5,024927482E-2;-3,535395563E-1;9,939785004E0
9,851405908E1;-7,357929647E-2;-4,265206456E-1;9,873384476E0
9,861405908E1;-1,393819153E-1;-4,073780477E-1;9,655039787E0
9,871405908E1;-9,690931439E-2;-3,810569942E-1;9,525827408E0
9,881405908E1;-8,434699476E-2;-3,978067636E-1;9,573683739E0
9,891405908E1;-5,264209956E-2;-3,559323549E-1;9,756135941E0
9,901405908E1;-1,016949583E-2;-3,475574851E-1;9,934401512E0
9,911405908E1;-1,914258115E-2;-3,463610709E-1;9,978668213E0
9,921405908E1;-3,828516230E-2;-4,025924206E-1;9,997811317E0
9,931405908E1;-8,075776696E-2;-3,595215976E-1;9,927223206E0
9,941405908E1;-5,383851007E-2;-3,511467278E-1;9,731011391E0
9,951405908E1;-5,204389244E-2;-3,607180119E-1;9,678369522E0
9,961405908E1;-8,973085321E-3;-3,194418252E-1;9,644869804E0
9,971405908E1;7,178467698E-3;-3,451646566E-1;9,693922997E0
9,981405908E1;7,776673418E-3;-3,661018610E-1;9,758528709E0
9,991405908E1;-4,127619043E-2;-4,325026870E-1;9,876974106E0
1,000140591E2;-1,495514158E-2;-4,031906128E-1;9,916455269E0
1,001140591E2;-3,828516230E-2;-3,870390654E-1;9,922437668E0
1,002140591E2;-4,426721856E-2;-3,906283081E-1;9,898509026E0
1,003140591E2;-5,443671346E-2;-3,361915946E-1;9,746564865E0
1,004140591E2;-3,828516230E-2;-3,409772217E-1;9,724431038E0
1,005140591E2;-7,298108935E-2;-3,852444589E-1;9,662218094E0
1,006140591E2;-6,400800496E-2;-3,810569942E-1;9,705288887E0
1,007140591E2;-7,118647546E-2;-3,912265003E-1;9,857233047E0
1,008140591E2;-7,298108935E-2;-3,361915946E-1;9,914660454E0
1,009140591E2;-5,204389244E-2;-3,355933726E-1;9,953543663E0
1,010140591E2;-5,742774159E-2;-3,284149170E-1;9,870393753E0
1,011140591E2;-4,307080805E-2;-3,702892959E-1;9,741181374E0
1,012140591E2;-7,657032460E-2;-4,091726840E-1;9,690931320E0
1,013140591E2;-9,152546525E-2;-3,978067636E-1;9,668199539E0
1,014140591E2;-7,836493850E-2;-3,912265003E-1;9,652048111E0
1,015140591E2;-3,349951655E-2;-3,714857101E-1;9,839884758E0
1,016140591E2;-2,991028316E-2;-3,613162339E-1;9,918250084E0
1,017140591E2;-2,392822690E-2;-3,475574851E-1;9,957731247E0
1,018140591E2;-4,725824669E-2;-3,535395563E-1;9,897313118E0
1,019140591E2;-3,170489892E-2;-3,427718580E-1;9,729815483E0
1,020140591E2;5,982056726E-3;-3,822534084E-1;9,752547264E0
1,021140591E2;-7,298108935E-2;-3,954139352E-1;9,561120987E0
1,022140591E2;-2,931207791E-2;-3,475574851E-1;9,756135941E0
1,023140591E2;2,991028316E-2;-3,493520916E-1;9,923035622E0
1,024140591E2;-7,178467698E-3;-3,134597540E-1;1,009711361E1
1,025140591E2;-2,153540403E-2;-3,397808075E-1;1,002532864E1
1,026140591E2;-5,264209956E-2;-3,918247223E-1;9,711270332E0
1,027140591E2;-7,657032460E-2;-4,163511395E-1;9,691530228E0
1,028140591E2;-3,050848842E-2;-3,810569942E-1;9,787242889E0
1,029140591E2;5,144568533E-2;-3,762713671E-1;9,764511108E0
1,030140591E2;2,213360928E-2;-3,320041299E-1;9,694520950E0
1,031140591E2;8,135596663E-2;-3,876372576E-1;9,711270332E0
1,032140591E2;-9,870393574E-2;-3,966103494E-1;9,865608215E0
1,033140591E2;-1,220339537E-1;-4,073780477E-1;9,799804688E0
1,034140591E2;-6,101697683E-2;-3,343969584E-1;9,929018021E0
1,035140591E2;-2,033899166E-2;-3,224328458E-1;9,982257843E0
1,036140591E2;3,768695518E-2;-2,650051117E-1;1,005284595E1
1,037140591E2;1,280160099E-1;-3,487538993E-1;9,909276962E0
1,038140591E2;1,160518974E-1;-4,707878530E-1;9,675378799E0
1,039140591E2;-3,888336942E-2;-3,966103494E-1;9,554540634E0
1,040140591E2;-2,871387079E-2;-4,444667995E-1;9,557532310E0
1,041140591E2;-1,148554832E-1;-4,336991012E-1;9,548559189E0
1,042140591E2;-7,597211748E-2;-3,750749528E-1;9,519247055E0
1,043140591E2;-1,136590764E-1;-3,834498227E-1;9,570094109E0
1,044140591E2;-7,357929647E-2;-4,259224236E-1;1,011505985E1
1,045140591E2;-8,673982322E-2;-3,643072546E-1;1,033938694E1
1,046140591E2;-1,579262912E-1;-2,650051117E-1;1,048774147E1
1,047140591E2;-1,196411322E-3;-3,834498227E-1;9,643074989E0
1,048140591E2;-9,511470050E-2;-4,097708762E-1;9,107681274E0
1,049140591E2;-7,178468257E-2;-3,876372576E-1;9,156734467E0
1,050140591E2;-8,315058798E-2;-3,768695593E-1;9,216554642E0
1,051140591E2;-3,469592705E-2;-3,170489967E-1;9,681360245E0
1,052140591E2;5,682953820E-2;-2,620140910E-1;9,985847473E0
1,053140591E2;-4,187439568E-3;-4,390829504E-1;1,030887794E1
1,054140591E2;1,794616925E-3;-4,516452849E-1;1,033819008E1
1,055140591E2;-1,674975827E-2;-3,272185028E-1;9,906884193E0
1,056140591E2;-6,161518395E-2;-3,272185028E-1;9,486943245E0
1,057140591E2;-2,392822690E-2;-2,937189937E-1;9,329017639E0
1,058140591E2;1,004985496E-1;-3,080759048E-1;9,247661591E0
1,059140591E2;9,152546525E-2;-3,463610709E-1;9,534201622E0
1,060140591E2;5,443671346E-2;-3,948157430E-1;9,893125534E0
1,061140591E2;-1,794616925E-3;-3,804588020E-1;1,011745262E1
1,062140591E2;-6,400800496E-2;-3,661018610E-1;1,020837975E1
1,063140591E2;-4,965107143E-2;-3,708875179E-1;1,014616585E1
1,064140591E2;-9,332008660E-2;-3,326023519E-1;9,931410789E0
1,065140591E2;-8,973085135E-2;-2,937189937E-1;9,597013474E0
1,066140591E2;-2,392822690E-2;-3,559323549E-1;9,401400566E0
1,067140591E2;-1,375873014E-2;-3,511467278E-1;9,434301376E0
1,068140591E2;-1,375873014E-2;-4,229314029E-1;9,573084831E0
1,069140591E2;-9,870393574E-2;-3,607180119E-1;9,759725571E0
1,070140591E2;-7,417750359E-2;-3,469592929E-1;1,009412193E1
1,071140591E2;-1,310070455E-1;-3,086741269E-1;1,022812080E1
1,072140591E2;-1,363908947E-1;-3,421736360E-1;9,912865639E0
1,073140591E2;-6,101697683E-2;-3,894318938E-1;9,645467758E0
1,074140591E2;-5,144568533E-2;-3,517449200E-1;9,606584549E0
1,075140591E2;1,016949583E-2;-3,517449200E-1;9,539586067E0
1,076140591E2;-1,734796353E-2;-3,038884699E-1;9,759725571E0
1,077140591E2;-4,127619043E-2;-2,847459018E-1;9,864411354E0
1,078140591E2;-6,999006122E-2;-3,134597540E-1;9,912267685E0
1,079140591E2;-6,520441920E-2;-3,996013701E-1;9,884152412E0
1,080140591E2;-6,101697683E-2;-3,996013701E-1;9,774082184E0
1,081140591E2;-1,734796353E-2;-2,799602449E-1;9,797411919E0
1,082140591E2;1,196411322E-3;-3,086741269E-1;9,687940598E0
1,083140591E2;5,982056726E-3;-3,086741269E-1;9,692726135E0
1,084140591E2;-2,751746029E-2;-3,804588020E-1;9,764511108E0
1,085140591E2;-7,956135273E-2;-3,900300860E-1;9,874580383E0
1,086140591E2;-6,939185411E-2;-3,613162339E-1;9,955936432E0
1,087140591E2;-6,460621208E-2;-3,421736360E-1;9,960722923E0
1,088140591E2;-5,084748194E-2;-3,469592929E-1;9,912865639E0
1,089140591E2;-1,495514158E-2;-3,643072546E-1;9,865009308E0
1,090140591E2;-1,196411345E-2;-3,272185028E-1;9,770493507E0
1,091140591E2;1,495514158E-2;-3,343969584E-1;9,756733894E0
1,092140591E2;-3,290131316E-2;-3,098705411E-1;9,812367439E0
1,093140591E2;-3,589233849E-3;-3,523431420E-1;9,903892517E0
1,094140591E2;-4,845465720E-2;-3,696911037E-1;9,938589096E0
1,095140591E2;-6,640082598E-2;-4,013960063E-1;9,901499748E0
1,096140591E2;-3,529413417E-2;-4,037888348E-1;9,850652695E0
1,097140591E2;-4,725824669E-2;-3,948157430E-1;9,708877563E0
1,098140591E2;-2,751746029E-2;-3,900300860E-1;9,704689980E0
1,099140591E2;-1,555334684E-2;-3,678964674E-1;9,802198410E0
1,100140591E2;-3,768695518E-2;-3,529413342E-1;9,840482712E0
1,101140591E2;-6,041877344E-2;-3,750749528E-1;9,926624298E0
1,102140591E2;-5,383851007E-2;-3,613162339E-1;9,926624298E0
1,103140591E2;-9,332008660E-2;-3,780659735E-1;9,844072342E0
1,104140591E2;-1,298106313E-1;-3,882354796E-1;9,817750931E0
1,105140591E2;-9,511470050E-2;-4,229314029E-1;9,772886276E0
1,106140591E2;-5,922235921E-2;-3,409772217E-1;9,808777809E0
1,107140591E2;-4,426721856E-2;-3,726821244E-1;9,809376717E0
1,108140591E2;-3,110669367E-2;-3,427718580E-1;9,830911636E0
1,109140591E2;-4,366901144E-2;-3,613162339E-1;9,823135376E0
1,110140591E2;-1,070788130E-1;-4,265206456E-1;9,722038269E0
1,111140591E2;-6,819544733E-2;-4,019941986E-1;9,790832520E0
1,112140591E2;-1,615155302E-2;-3,523431420E-1;9,857233047E0
1,113140591E2;3,110669367E-2;-3,188436031E-1;9,894321442E0
1,114140591E2;9,092725813E-2;-3,678964674E-1;9,902098656E0
1,115140591E2;-8,554340899E-2;-3,774677813E-1;9,754940033E0
1,116140591E2;7,716853172E-2;-3,900300860E-1;9,950552940E0
1,117140591E2;-8,374879509E-2;-4,522434771E-1;9,661021233E0
1,118140591E2;-2,691925503E-2;-4,019941986E-1;9,702896118E0
1,119140591E2;2,452643216E-2;-3,523431420E-1;9,766305923E0
1,120140591E2;-5,204389244E-2;-3,511467278E-1;9,801001549E0
1,121140591E2;3,349951655E-2;-4,055834413E-1;9,863813400E0
1,122140591E2;-1,363908947E-1;-4,271188378E-1;9,909276962E0
1,123140591E2;-1,495514158E-2;-3,918247223E-1;9,921240807E0
1,124140591E2;7,657032460E-2;-3,804588020E-1;1,012881851E1
1,125140591E2;-5,084748194E-2;-3,481557071E-1;9,870393753E0
1,126140591E2;5,383851007E-2;-3,708875179E-1;9,573084831E0
1,127140591E2;2,392822644E-3;-4,193421602E-1;9,488738060E0
1,128140591E2;-1,286142170E-1;-4,594219327E-1;9,432506561E0
1,129140591E2;3,349951655E-2;-4,163511395E-1;9,625128746E0
1,130140591E2;-2,632104978E-2;-4,127618968E-1;9,829116821E0
1,131140591E2;5,862415582E-2;-4,013960063E-1;9,945767403E0
1,132140591E2;2,871387079E-2;-4,157529473E-1;9,973882675E0
1,133140591E2;5,982056726E-3;-3,810569942E-1;9,963115692E0
1,134140591E2;3,649054468E-2;-3,882354796E-1;9,678967476E0
1,135140591E2;-1,555334684E-2;-3,595215976E-1;9,614959717E0
1,136140591E2;1,854437590E-2;-3,595215976E-1;9,454042435E0
1,137140591E2;9,571290575E-3;-3,732803464E-1;9,467203140E0
1,138140591E2;-6,879365444E-2;-3,218346536E-1;9,645467758E0
1,139140591E2;-5,623133108E-2;-3,762713671E-1;9,723235130E0
1,140140591E2;-1,543370634E-1;-3,559323549E-1;9,833304405E0
1,141140591E2;-7,118647546E-2;-3,930211067E-1;9,925428391E0
1,142140591E2;-9,810572863E-2;-3,355933726E-1;9,835697174E0
1,143140591E2;-1,328016520E-1;-3,278166950E-1;9,793823242E0
1,144140591E2;-8,315058798E-2;-3,200400174E-1;9,667601585E0
1,145140591E2;2,392822690E-2;-3,487538993E-1;9,722038269E0
1,146140591E2;-1,758724600E-1;-3,367897868E-1;9,580862045E0
1,147140591E2;3,469592705E-2;-3,014956415E-1;9,724431038E0
1,148140591E2;-1,052841991E-1;-3,242274821E-1;9,762118340E0
1,149140591E2;-2,991028363E-3;-3,044866920E-1;9,895518303E0
1,150140591E2;5,383851007E-2;-3,385843933E-1;9,835099220E0
1,151140591E2;-3,649054468E-2;-3,475574851E-1;9,721440315E0
1,152140591E2;1,160518974E-1;-3,625126183E-1;9,760323524E0
1,153140591E2;1,208375469E-1;-3,792623878E-1;9,619147301E0
1,154140591E2;3,888336942E-2;-3,296113312E-1;9,570094109E0
1,155140591E2;1,519442350E-1;-3,296113312E-1;9,681360245E0
1,156140591E2;3,409772366E-2;-2,697907388E-1;9,765109062E0
1,157140591E2;7,178468257E-2;-2,895315289E-1;9,895518303E0
1,158140591E2;4,127619043E-2;-3,152543902E-1;9,895518303E0
1,159140591E2;5,204389244E-2;-3,008974493E-1;9,817750931E0
1,160140591E2;9,690931439E-2;-3,457628787E-1;9,801001549E0
1,161140591E2;3,349951655E-2;-3,188436031E-1;9,638289452E0
1,162140591E2;6,161518395E-2;-3,050848842E-1;9,696315765E0
1,163140591E2;5,982056609E-4;-2,871387303E-1;9,750752449E0
1,164140591E2;7,836493850E-2;-2,721835673E-1;9,857233047E0
1,165140591E2;4,127619043E-2;-3,002992272E-1;9,810572624E0
1,166140591E2;7,477571070E-2;-3,607180119E-1;9,723235130E0
1,167140591E2;8,434699476E-2;-3,601198196E-1;9,591629982E0
1,168140591E2;8,793623000E-2;-3,481557071E-1;9,560523033E0
1,169140591E2;4,187439755E-2;-3,008974493E-1;9,655039787E0
1,170140591E2;9,212367237E-2;-2,368894368E-1;9,940981865E0
1,171140591E2;1,088734269E-1;-2,602194548E-1;9,958928108E0
1,172140591E2;1,304088384E-1;-3,146561682E-1;9,789037704E0
1,173140591E2;3,349951655E-2;-3,349951804E-1;9,597013474E0
1,174140591E2;7,178468257E-2;-3,463610709E-1;9,408578873E0
1,175140591E2;9,990034252E-2;-3,074777126E-1;9,521639824E0
1,176140591E2;1,262213886E-1;-2,057827413E-1;9,932606697E0
1,177140591E2;2,333002165E-2;-2,075773627E-1;9,990034103E0
1,178140591E2;-7,178467698E-3;-2,907279432E-1;9,988838196E0
1,179140591E2;-1,435693540E-2;-3,445664644E-1;9,923035622E0
1,180140591E2;-4,845465720E-2;-3,074777126E-1;9,949356079E0
1,181140591E2;-1,794617064E-2;-2,907279432E-1;9,826724052E0
1,182140591E2;8,913264424E-2;-2,829512656E-1;9,630513191E0
1,183140591E2;1,250249892E-1;-2,536391914E-1;9,614959717E0
1,184140591E2;2,033899166E-2;-3,433700502E-1;9,498908043E0
1,185140591E2;3,768695518E-2;-3,750749528E-1;9,555737495E0
1,186140591E2;1,555334684E-2;-3,385843933E-1;9,728618622E0
1,187140591E2;-5,982056609E-4;-2,967100143E-1;9,901499748E0
1,188140591E2;1,914258115E-2;-2,757728100E-1;1,009172916E1
1,189140591E2;-2,093719877E-2;-2,727817893E-1;1,009711361E1
1,190140591E2;-2,452643216E-2;-2,931207716E-1;9,851848602E0
1,191140591E2;-5,024927482E-2;-3,098705411E-1;9,629914284E0
1,192140591E2;7,776673418E-3;-3,116651475E-1;9,537193298E0
1,193140591E2;-1,136590727E-2;-2,823530734E-1;9,535398483E0
1,194140591E2;4,127619043E-2;-2,506481707E-1;9,683155060E0
1,195140591E2;5,383851007E-3;-2,608176768E-1;9,935597420E0
1,196140591E2;6,580262445E-3;-3,032902777E-1;9,939187050E0
1,197140591E2;-4,426721856E-2;-2,907279432E-1;1,005284595E1
1,198140591E2;-1,734796353E-2;-3,212364316E-1;9,966704369E0
1,199140591E2;-3,948157281E-2;-3,074777126E-1;9,752547264E0
1,200140591E2;1,016949583E-2;-3,302095234E-1;9,680164337E0
1,201140591E2;1,615155302E-2;-3,134597540E-1;9,589835167E0
1,202140591E2;3,529413417E-2;-3,158525825E-1;9,648459435E0
1,203140591E2;3,110669367E-2;-2,991028428E-1;9,765109062E0
1,204140591E2;1,316052489E-2;-2,967100143E-1;9,859625816E0
1,205140591E2;4,546362907E-2;-3,122633696E-1;9,960124016E0
1,206140591E2;3,888336942E-2;-3,272185028E-1;9,914660454E0
1,207140591E2;7,238288224E-2;-3,475574851E-1;9,766903877E0
1,208140591E2;4,486542568E-2;-3,678964674E-1;9,643074989E0
1,209140591E2;4,725824669E-2;-3,086741269E-1;9,479764938E0
1,210140591E2;-8,973085321E-3;-3,128615618E-1;9,488738060E0
1,211140591E2;-1,016949583E-2;-2,877369225E-1;9,805787086E0
1,212140591E2;-1,064806059E-1;-2,697907388E-1;9,872786522E0
1,213140591E2;-3,409772366E-2;-3,056831062E-1;1,017188931E1
1,214140591E2;-8,913264424E-2;-2,470589429E-1;1,019162941E1
1,215140591E2;-2,572284266E-2;-3,224328458E-1;9,851250648E0
1,216140591E2;-1,196411322E-3;-2,889333367E-1;9,666405678E0
1,217140591E2;-8,793623000E-2;-3,385843933E-1;9,500701904E0
1,218140591E2;4,905286431E-2;-2,422732860E-1;9,863214493E0
1,219140591E2;7,118647546E-2;-2,063809484E-1;1,013659477E1
1,220140591E2;4,785645381E-2;-3,678964674E-1;9,887741089E0
1,221140591E2;1,076770201E-2;-4,540380836E-1;9,557532310E0
1,222140591E2;2,512463741E-2;-4,444667995E-1;9,480362892E0
1,223140591E2;3,529413417E-2;-3,732803464E-1;9,497711182E0
1,224140591E2;1,052841991E-1;-2,667997181E-1;9,781859398E0
1,225140591E2;6,580262445E-3;-2,620140910E-1;9,854242325E0
1,226140591E2;5,682953820E-2;-3,864408433E-1;1,006959629E1
1,227140591E2;5,443671346E-2;-3,134597540E-1;1,031904793E1
1,228140591E2;-6,580262445E-3;-3,373879790E-1;9,806385040E0
1,229140591E2;1,615155302E-2;-3,128615618E-1;9,656833649E0
1,230140591E2;-6,580262445E-3;-3,248256743E-1;9,401998520E0
1,231140591E2;7,776673418E-3;-3,218346536E-1;9,424730301E0
1,232140591E2;-1,435693540E-2;-2,889333367E-1;9,659825325E0
1,233140591E2;-1,016949583E-2;-2,841476798E-1;9,865009308E0
1,234140591E2;-6,101697683E-2;-3,720839322E-1;1,017846966E1
1,235140591E2;-4,965107143E-2;-3,619144261E-1;1,014736271E1
1,236140591E2;-6,580262631E-2;-3,379862010E-1;1,007617569E1
1,237140591E2;-5,982056609E-4;-3,337987661E-1;9,854242325E0
1,238140591E2;-1,435693540E-2;-3,206382394E-1;9,495318413E0
1,239140591E2;1,615155302E-2;-3,840480447E-1;9,381061554E0
1,240140591E2;5,682953820E-2;-3,367897868E-1;9,533005714E0
1,241140591E2;6,041877344E-2;-3,158525825E-1;9,751350403E0
1,242140591E2;6,699903309E-2;-3,002992272E-1;1,001456070E1
1,243140591E2;5,742774159E-2;-2,979064286E-1;1,009711361E1
1,244140591E2;1,154536903E-1;-3,260220885E-1;1,009232807E1
1,245140591E2;8,434699476E-2;-3,601198196E-1;9,669396400E0
1,246140591E2;4,666004330E-2;-3,158525825E-1;9,489934921E0
1,247140591E2;6,879365444E-2;-3,110669553E-1;9,339186668E0
1,248140591E2;8,374879137E-3;-3,457628787E-1;9,471389771E0
1,249140591E2;-1,974078640E-2;-3,170489967E-1;9,829116821E0
1,250140591E2;-7,896314561E-2;-3,164508045E-1;9,931410789E0
1,251140591E2;-6,759724021E-2;-2,931207716E-1;1,023529911E1
1,252140591E2;-7,896314561E-2;-2,644068897E-1;1,031366348E1
1,253140591E2;-6,939185411E-2;-3,433700502E-1;9,816555023E0
1,254140591E2;-3,230310604E-2;-3,571287692E-1;9,694520950E0
1,255140591E2;-1,429711580E-1;-4,013960063E-1;9,418149948E0
1,256140591E2;-5,503492057E-2;-2,925225794E-1;9,519845009E0
1,257140591E2;-5,084748194E-2;-3,182454109E-1;9,674181938E0
1,258140591E2;-4,366901144E-2;-2,781656384E-1;9,946365356E0
1,259140591E2;4,785645287E-3;-3,176472187E-1;1,013121128E1
1,260140591E2;4,905286431E-2;-3,206382394E-1;1,008814049E1
1,261140591E2;9,152546525E-2;-3,571287692E-1;9,886545181E0
1,262140591E2;1,184447184E-1;-3,361915946E-1;9,777671814E0
1,263140591E2;1,692921966E-1;-3,002992272E-1;9,773484230E0
1,264140591E2;1,956132501E-1;-3,110669553E-1;9,593423843E0
1,265140591E2;9,272187948E-2;-3,296113312E-1;9,503094673E0
1,266140591E2;1,202393398E-1;-3,918247223E-1;9,410971642E0
1,267140591E2;1,944168359E-1;-3,804588020E-1;9,639486313E0
1,268140591E2;1,722832322E-1;-3,583251834E-1;9,865608215E0
1,269140591E2;8,554340899E-2;-2,811566591E-1;1,013420200E1
1,270140591E2;4,366901144E-2;-3,714857101E-1;9,932606697E0
1,271140591E2;4,486542568E-2;-3,732803464E-1;9,882955551E0
1,272140591E2;6,400800496E-2;-2,799602449E-1;9,881160736E0
1,273140591E2;9,571290761E-2;-2,739782035E-1;9,817750931E0
1,274140591E2;1,615155302E-2;-3,050848842E-1;9,527023315E0
1,275140591E2;-7,238288224E-2;-3,236292601E-1;9,430113792E0
1,276140591E2;-1,477568001E-1;-3,577269912E-1;9,588040352E0
1,277140591E2;-1,339980662E-1;-3,379862010E-1;9,733404160E0
1,278140591E2;-1,926222295E-1;-2,853440940E-1;1,006720352E1
1,279140591E2;-1,938186288E-1;-3,296113312E-1;1,025025368E1
1,280140591E2;-6,041877344E-2;-3,092723191E-1;1,024606609E1
1,281140591E2;-4,666004330E-2;-2,955136001E-1;1,006301594E1
1,282140591E2;1,435693540E-2;-3,284149170E-1;9,580862045E0
1,283140591E2;1,734796353E-2;-3,296113312E-1;9,457033157E0
1,284140591E2;1,244267747E-1;-3,326023519E-1;9,429515839E0
1,285140591E2;1,058823988E-1;-2,973082066E-1;9,516854286E0
1,286140591E2;8,255238086E-2;-3,242274821E-1;9,826724052E0
1,287140591E2;4,187439755E-2;-3,397808075E-1;9,989436150E0
1,288140591E2;7,298108935E-2;-3,337987661E-1;1,010488987E1
1,289140591E2;6,759724021E-2;-3,314059377E-1;1,006600666E1
1,290140591E2;6,759724021E-2;-3,230310678E-1;9,830911636E0
1,291140591E2;6,939185411E-2;-2,691925466E-1;9,698708534E0
1,292140591E2;7,836493850E-2;-3,218346536E-1;9,470193863E0
1,293140591E2;4,965107143E-2;-3,266202807E-1;9,477372169E0
1,294140591E2;2,333002165E-2;-3,613162339E-1;9,759725571E0
1,295140591E2;-2,931207791E-2;-3,314059377E-1;1,000618649E1
1,296140591E2;-4,247260094E-2;-2,841476798E-1;9,963713646E0
1,297140591E2;-1,280160099E-1;-3,224328458E-1;9,878170013E0
1,298140591E2;-3,349951655E-2;-3,403790295E-1;9,965508461E0
1,299140591E2;-3,888336942E-2;-3,146561682E-1;9,778867722E0
1,300140591E2;-1,016949583E-2;-3,248256743E-1;9,748957634E0
1,301140591E2;-4,127619043E-2;-2,883351147E-1;9,714859962E0
1,302140591E2;-3,230310604E-2;-3,026920557E-1;9,680164337E0
1,303140591E2;-1,196411322E-3;-3,008974493E-1;9,814162254E0
1,304140591E2;2,512463741E-2;-3,314059377E-1;9,949954987E0
1,305140591E2;6,520441920E-2;-3,206382394E-1;1,005344391E1
1,306140591E2;7,357929647E-2;-3,122633696E-1;9,987043381E0
1,307140591E2;6,939185411E-2;-3,236292601E-1;9,649057388E0
1,308140591E2;5,742774159E-2;-3,421736360E-1;9,650253296E0
1,309140591E2;7,178468257E-2;-3,302095234E-1;9,646664619E0
1,310140591E2;9,032905847E-2;-2,859423161E-1;9,727422714E0
1,311140591E2;8,614161611E-2;-3,296113312E-1;9,759127617E0
1,312140591E2;5,383851007E-2;-3,451646566E-1;9,816555023E0
1,313140591E2;5,503492057E-2;-3,236292601E-1;9,923633575E0
1,314140591E2;2,811566554E-2;-3,230310678E-1;9,888339996E0
1,315140591E2;3,050848842E-2;-3,080759048E-1;9,797411919E0
1,316140591E2;1,794617064E-2;-3,248256743E-1;9,762716293E0
1,317140591E2;-1,375873014E-2;-2,847459018E-1;9,745966911E0
1,318140591E2;-3,768695518E-2;-2,835494876E-1;9,644271851E0
1,319140591E2;-1,914258115E-2;-3,092723191E-1;9,729216576E0
1,320140591E2;-2,931207791E-2;-3,385843933E-1;9,882357597E0
1,321140591E2;-3,828516230E-2;-3,343969584E-1;9,904491425E0
1,322140591E2;-4,785645381E-2;-2,985046208E-1;9,890732765E0
1,323140591E2;-9,571290575E-3;-3,427718580E-1;9,866206169E0
1,324140591E2;-2,033899166E-2;-3,200400174E-1;9,750154495E0
1,325140591E2;7,178467698E-3;-3,212364316E-1;9,757930756E0
1,326140591E2;4,905286431E-2;-3,038884699E-1;9,735198975E0
1,327140591E2;6,699903309E-2;-2,901297510E-1;9,771689415E0
1,328140591E2;2,691925503E-2;-3,068794906E-1;9,796813965E0
1,329140591E2;2,931207791E-2;-3,212364316E-1;9,838688850E0
1,330140591E2;5,383851007E-3;-3,176472187E-1;9,834501266E0
1,331140591E2;5,922235921E-2;-3,379862010E-1;9,839286804E0
1,332140591E2;2,093719877E-2;-3,068794906E-1;9,817750931E0
1,333140591E2;3,768695518E-2;-3,194418252E-1;9,784850121E0
1,334140591E2;1,196411345E-2;-3,296113312E-1;9,757930756E0
1,335140591E2;1,794617064E-2;-3,248256743E-1;9,745966911E0
1,336140591E2;-2,452643216E-2;-3,284149170E-1;9,802198410E0
1,337140591E2;-2,333002165E-2;-2,709871531E-1;9,748957634E0
1,338140591E2;5,383851007E-3;-2,913261652E-1;9,939187050E0
1,339140591E2;-4,307080805E-2;-3,014956415E-1;9,943972588E0
1,340140591E2;1,794616925E-3;-3,403790295E-1;9,868598938E0
1,341140591E2;-2,392822644E-3;-3,248256743E-1;9,857233047E0
1,342140591E2;1,555334684E-2;-3,050848842E-1;9,737591743E0
1,343140591E2;-4,067798331E-2;-3,044866920E-1;9,729216576E0
1,344140591E2;1,375873014E-2;-2,877369225E-1;9,823733330E0
1,345140591E2;-2,273181453E-2;-3,355933726E-1;9,885947227E0
1,346140591E2;8,554340899E-2;-2,997010350E-1;9,967302322E0
1,347140591E2;-8,973085321E-3;-3,577269912E-1;9,802198410E0
1,348140591E2;6,400800496E-2;-3,517449200E-1;9,708877563E0
1,349140591E2;2,153540403E-2;-3,212364316E-1;9,782457352E0
1,350140591E2;2,751746029E-2;-3,050848842E-1;9,915258408E0
1,351140591E2;-1,196411322E-3;-3,026920557E-1;9,876974106E0
1,352140591E2;-5,982056609E-4;-3,320041299E-1;9,812965393E0
1,353140591E2;2,512463741E-2;-3,302095234E-1;9,788438797E0
1,354140591E2;-5,383851007E-3;-3,230310678E-1;9,818947792E0
1,355140591E2;2,093719877E-2;-3,188436031E-1;9,766305923E0
1,356140591E2;-8,973085321E-3;-3,062812984E-1;9,801001549E0
1,357140591E2;-1,794616925E-3;-3,409772217E-1;9,881759644E0
1,358140591E2;-2,931207791E-2;-3,290131092E-1;9,931410789E0
1,359140591E2;5,982056609E-4;-3,044866920E-1;9,948758125E0
1,360140591E2;-7,178467698E-3;-3,026920557E-1;9,872786522E0
1,361140591E2;2,751746029E-2;-3,332005441E-1;9,778269768E0
1,362140591E2;2,991028363E-3;-3,349951804E-1;9,732806206E0
1,363140591E2;4,187439755E-2;-3,409772217E-1;9,782457352E0
1,364140591E2;6,041877344E-2;-3,164508045E-1;9,848857880E0
1,365140591E2;4,187439755E-2;-3,409772217E-1;9,879366875E0
1,366140591E2;1,316052489E-2;-3,595215976E-1;9,849455833E0
1,367140591E2;3,589234129E-2;-3,481557071E-1;9,910472870E0
1,368140591E2;1,794616925E-3;-3,278166950E-1;9,849455833E0
1,369140591E2;-8,374879137E-3;-3,355933726E-1;9,702297211E0
1,370140591E2;-5,503492057E-2;-3,649054468E-1;9,559326172E0
1,371140591E2;-1,316052489E-2;-3,571287692E-1;9,681360245E0
1,372140591E2;-7,298108935E-2;-3,074777126E-1;9,875777245E0
1,373140591E2;-6,640082598E-2;-2,913261652E-1;9,936196327E0
1,374140591E2;-8,614161611E-2;-3,104687333E-1;1,014616585E1
1,375140591E2;-8,075776696E-2;-3,026920557E-1;1,013360405E1
1,376140591E2;-6,340979785E-2;-3,182454109E-1;9,872187614E0
1,377140591E2;0,000000000E0;-3,080759048E-1;9,716055870E0
1,378140591E2;3,230310604E-2;-3,355933726E-1;9,885947227E0
1,379140591E2;2,033899166E-2;-2,871387303E-1;9,931410789E0
1,380140591E2;1,016949583E-2;-3,649054468E-1;9,654440880E0
1,381140591E2;1,256231871E-2;-4,301098585E-1;9,574281693E0
1,382140591E2;2,333002165E-2;-4,247260094E-1;9,537193298E0
1,383140591E2;3,828516230E-2;-4,319044948E-1;9,604191780E0
1,384140591E2;5,862415582E-2;-3,517449200E-1;9,748359680E0
1,385140591E2;8,494520187E-2;-3,451646566E-1;9,873982430E0
1,386140591E2;4,606183618E-2;-3,152543902E-1;1,012403297E1
1,387140591E2;-1,016949583E-2;-3,002992272E-1;1,001216793E1
1,388140591E2;4,307080805E-2;-3,337987661E-1;9,681360245E0
1,389140591E2;-2,033899166E-2;-3,224328458E-1;9,434899330E0
1,390140591E2;-5,922235921E-2;-3,254238665E-1;9,019146919E0
1,391140591E2;-6,520441920E-2;-3,655036688E-1;9,215357780E0
1,392140591E2;-1,028913707E-1;-2,931207716E-1;9,928419113E0
1,393140591E2;-1,351944804E-1;-1,980060786E-1;1,058584690E1
1,394140591E2;-1,435693651E-1;-1,908276081E-1;1,058883858E1
1,395140591E2;-1,339980662E-1;-2,745763958E-1;1,022752190E1
1,396140591E2;-1,411765367E-1;-2,787638307E-1;9,840482712E0
1,397140591E2;-3,708875179E-2;-2,997010350E-1;9,394820213E0
1,398140591E2;-2,153540403E-2;-3,200400174E-1;9,223134995E0
1,399140591E2;9,870393574E-2;-3,672982752E-1;9,428917885E0
1,400140591E2;9,631111473E-2;-3,559323549E-1;9,687342644E0
1,401140591E2;1,573280841E-1;-3,158525825E-1;1,030409241E1
1,402140591E2;1,286142170E-1;-2,979064286E-1;1,037168980E1
1,403140591E2;1,220339537E-1;-3,565305769E-1;1,009830952E1
1,404140591E2;1,435693651E-1;-3,804588020E-1;9,875777245E0
1,405140591E2;1,561316848E-1;-3,068794906E-1;9,513862610E0
1,406140591E2;1,232303679E-1;-3,032902777E-1;9,429515839E0
1,407140591E2;1,094716340E-1;-3,493520916E-1;9,415159225E0
1,408140591E2;2,931207791E-2;-3,708875179E-1;9,552745819E0
1,409140591E2;-5,982056726E-3;-3,475574851E-1;9,876974106E0
1,410140591E2;-2,632104978E-2;-3,326023519E-1;9,984052658E0
1,411140591E2;-1,381855011E-1;-3,014956415E-1;1,016949654E1
1,412140591E2;-1,064806059E-1;-3,272185028E-1;1,004806042E1
1,413140591E2;-1,561316848E-1;-3,547359705E-1;9,811170578E0
1,414140591E2;-1,244267747E-1;-3,134597540E-1;9,616754532E0
1,415140591E2;-1,118644550E-1;-3,254238665E-1;9,593423843E0
1,416140591E2;-7,776673883E-2;-3,128615618E-1;9,582057953E0
1,417140591E2;-1,136590764E-1;-3,367897868E-1;9,769894600E0
1,418140591E2;-5,563312769E-2;-3,894318938E-1;9,801001549E0
1,419140591E2;-1,178465188E-1;-3,266202807E-1;9,926026344E0
1,420140591E2;1,794616925E-3;-2,769692242E-1;1,002173901E1
1,421140591E2;4,546362907E-2;-3,469592929E-1;1,001216793E1
1,422140591E2;2,321037948E-1;-3,397808075E-1;9,759127617E0
1,423140591E2;1,220339537E-1;-2,620140910E-1;9,784850121E0
1,424140591E2;2,165504545E-1;-2,943171859E-1;9,744172096E0
1,425140591E2;1,812563092E-1;-3,326023519E-1;9,550951958E0
1,426140591E2;2,291127741E-1;-3,541377485E-1;9,662218094E0
1,427140591E2;1,405783296E-1;-3,152543902E-1;9,716055870E0
1,428140591E2;1,274178028E-1;-3,822534084E-1;9,845867157E0
1,429140591E2;1,238285750E-1;-3,415754437E-1;9,911071777E0
1,430140591E2;8,015955985E-2;-3,242274821E-1;9,853045464E0
1,431140591E2;5,383851007E-2;-3,672982752E-1;9,796216011E0
1,432140591E2;7,178467698E-3;-3,643072546E-1;9,678967476E0
1,433140591E2;-3,529413417E-2;-3,355933726E-1;9,742377281E0
1,434140591E2;-1,310070455E-1;-2,847459018E-1;9,785448074E0
1,435140591E2;-1,441675574E-1;-3,637090325E-1;9,725627899E0
1,436140591E2;-1,555334777E-1;-3,583251834E-1;9,881759644E0
1,437140591E2;-1,812563092E-1;-3,170489967E-1;9,957133293E0
1,438140591E2;-8,255238086E-2;-2,757728100E-1;1,002413273E1
1,439140591E2;-9,631111473E-2;-3,487538993E-1;1,001994514E1
1,440140591E2;7,956135273E-2;-3,661018610E-1;9,690333366E0
1,441140591E2;9,571290761E-2;-2,446661144E-1;9,744172096E0
1,442140591E2;1,872383654E-1;-5,228317380E-1;9,276374817E0
1,443140591E2;-2,464607358E-1;-7,657032460E-2;1,031725311E1
1,444140591E2;7,357929647E-2;-4,013960063E-1;9,642477036E0
1,445140591E2;1,166501045E-1;-3,559323549E-1;9,827322960E0
1,446140591E2;4,366901144E-2;-3,008974493E-1;1,003250694E1
1,447140591E2;1,322034448E-1;-3,834498227E-1;9,766305923E0
1,448140591E2;1,698904037E-1;-2,733799815E-1;9,573683739E0
1,449140591E2;1,022931710E-1;-2,931207716E-1;9,503693581E0
1,450140591E2;5,324030295E-2;-2,961117923E-1;9,715457916E0
1,451140591E2;1,016949639E-1;-1,872383654E-1;1,022393322E1
1,452140591E2;3,589233849E-3;-2,542374134E-1;1,011625576E1
1,453140591E2;-7,357929647E-2;-3,176472187E-1;9,851848602E0
1,454140591E2;-1,369891018E-1;-3,834498227E-1;9,636494637E0
1,455140591E2;-8,554340899E-2;-3,541377485E-1;9,489336014E0
1,456140591E2;-9,032905847E-2;-3,367897868E-1;9,522835732E0
1,457140591E2;-5,862415582E-2;-3,074777126E-1;9,791430473E0
1,458140591E2;-5,982056633E-2;-3,577269912E-1;9,949954987E0
1,459140591E2;-1,022931710E-1;-2,614158690E-1;1,011266708E1
1,460140591E2;-3,110669367E-2;-2,638086975E-1;1,021316528E1
1,461140591E2;1,794617064E-2;-2,823530734E-1;9,814162254E0
1,462140591E2;1,076770201E-2;-3,337987661E-1;9,702896118E0
1,463140591E2;2,632104978E-2;-2,985046208E-1;9,554540634E0
1,464140591E2;5,922235921E-2;-3,481557071E-1;9,441479683E0
1,465140591E2;9,451649338E-2;-3,212364316E-1;9,687940598E0
1,466140591E2;5,024927482E-2;-2,835494876E-1;9,817152977E0
1,467140591E2;1,304088384E-1;-2,620140910E-1;9,960124016E0
1,468140591E2;4,965107143E-2;-2,877369225E-1;9,956535339E0
1,469140591E2;5,742774159E-2;-3,577269912E-1;9,849455833E0
1,470140591E2;6,221338734E-2;-3,284149170E-1;9,722636223E0
1,471140591E2;6,221338734E-2;-3,547359705E-1;9,531210899E0
1,472140591E2;1,256231871E-2;-3,098705411E-1;9,586245537E0
1,473140591E2;-2,153540403E-2;-3,134597540E-1;9,642477036E0
1,474140591E2;-5,982056726E-3;-2,967100143E-1;9,875179291E0
1,475140591E2;-7,058826834E-2;-2,757728100E-1;9,948160172E0
1,476140591E2;-2,871387079E-2;-2,470589429E-1;1,003789139E1
1,477140591E2;-2,392822690E-2;-2,961117923E-1;1,002054310E1
1,478140591E2;-8,973085321E-3;-3,308077157E-1;9,734601021E0
1,479140591E2;-1,734796353E-2;-3,212364316E-1;9,682557106E0
1,480140591E2;-1,674975827E-2;-3,068794906E-1;9,552745819E0
1,481140591E2;-1,555334684E-2;-2,931207716E-1;9,563513756E0
1,482140591E2;-1,076770201E-2;-2,859423161E-1;9,749555588E0
1,483140591E2;1,016949583E-2;-3,116651475E-1;9,879964828E0
1,484140591E2;4,965107143E-2;-2,979064286E-1;1,004148006E1
1,485140591E2;5,802594870E-2;-3,044866920E-1;1,007557774E1
1,486140591E2;8,673982322E-2;-2,715853751E-1;9,920044899E0
1,487140591E2;1,160518974E-1;-2,835494876E-1;9,877572060E0
1,488140591E2;1,603191197E-1;-2,727817893E-1;9,635896683E0
1,489140591E2;1,680957973E-1;-3,020938635E-1;9,614959717E0
1,490140591E2;1,046859920E-1;-3,367897868E-1;9,613762856E0
1,491140591E2;7,657032460E-2;-3,475574851E-1;9,647860527E0
1,492140591E2;2,991028363E-3;-3,571287692E-1;9,868000984E0
1,493140591E2;-2,751746029E-2;-3,523431420E-1;9,928419113E0
1,494140591E2;-2,512463741E-2;-2,997010350E-1;9,968499184E0
1,495140591E2;-3,290131316E-2;-2,739782035E-1;9,924830437E0
1,496140591E2;-5,982056609E-4;-2,907279432E-1;9,832706451E0
1,497140591E2;-2,632104978E-2;-2,841476798E-1;9,742377281E0
1,498140591E2;-3,170489892E-2;-2,829512656E-1;9,712467194E0
1,499140591E2;-7,178468257E-2;-2,901297510E-1;9,682557106E0
1,500140591E2;-5,443671346E-2;-3,182454109E-1;9,758528709E0
1,501140591E2;-1,202393398E-1;-3,140579760E-1;9,924231529E0
1,502140591E2;-4,486542568E-2;-2,907279432E-1;1,007557774E1
1,503140591E2;-4,965107143E-2;-2,817548811E-1;1,001276588E1
1,504140591E2;-2,153540403E-2;-2,973082066E-1;9,924830437E0
1,505140591E2;4,486542568E-2;-3,038884699E-1;9,808179855E0
1,506140591E2;3,768695518E-2;-2,967100143E-1;9,642477036E0
1,507140591E2;4,785645381E-2;-3,505485058E-1;9,524630547E0
1,508140591E2;4,127619043E-2;-3,182454109E-1;9,515657425E0
1,509140591E2;7,058826834E-2;-2,979064286E-1;9,736394882E0
1,510140591E2;7,178468257E-2;-3,074777126E-1;9,817152977E0
1,511140591E2;8,793623000E-2;-2,398804724E-1;1,009113121E1
1,512140591E2;2,410768867E-1;-2,775674164E-1;1,013838959E1
1,513140591E2;7,597211748E-2;-2,584248483E-1;1,000139999E1
1,514140591E2;4,307080805E-2;-3,122633696E-1;9,688538551E0
1,515140591E2;-2,452643216E-2;-3,762713671E-1;9,330811501E0
1,516140591E2;-5,204389244E-2;-3,589234054E-1;9,494720459E0
1,517140591E2;-1,351944804E-1;-3,403790295E-1;9,756733894E0
1,518140591E2;-1,794617064E-2;-2,985046208E-1;1,006181908E1
1,519140591E2;4,606183618E-2;-3,248256743E-1;1,020957565E1
1,520140591E2;1,794616925E-3;-2,967100143E-1;9,940981865E0
1,521140591E2;-1,136590727E-2;-2,871387303E-1;9,759725571E0
1,522140591E2;7,178467698E-3;-3,469592929E-1;9,560523033E0
1,523140591E2;-4,785645287E-3;-3,517449200E-1;9,497711182E0
1,524140591E2;-3,110669367E-2;-3,026920557E-1;9,710074425E0
1,525140591E2;-5,682953820E-2;-3,050848842E-1;9,850054741E0
1,526140591E2;-8,973085321E-3;-2,997010350E-1;9,996614456E0
1,527140591E2;1,495514158E-2;-2,901297510E-1;9,961320877E0
1,528140591E2;7,238288224E-2;-2,769692242E-1;9,865009308E0
1,529140591E2;7,238288224E-2;-2,949153781E-1;9,687940598E0
1,530140591E2;6,281159073E-2;-3,218346536E-1;9,535398483E0
1,531140591E2;4,247260094E-2;-3,098705411E-1;9,625128746E0
1,532140591E2;2,093719877E-2;-2,733799815E-1;9,890732765E0
1,533140591E2;-7,776673418E-3;-2,895315289E-1;9,983454704E0
1,534140591E2;1,734796353E-2;-2,518445849E-1;9,835099220E0
1,535140591E2;3,589234129E-2;-3,589234054E-1;9,796216011E0
1,536140591E2;1,435693540E-2;-3,068794906E-1;9,599406242E0
1,537140591E2;2,991028316E-2;-3,445664644E-1;9,545567513E0
1,538140591E2;-5,982056726E-3;-3,409772217E-1;9,617950439E0
1,539140591E2;-7,298108935E-2;-3,481557071E-1;9,592227936E0
1,540140591E2;-8,075776696E-2;-2,781656384E-1;9,745368004E0
1,541140591E2;-7,298108935E-2;-2,877369225E-1;9,741779327E0
1,542140591E2;-7,238288224E-2;-2,632105052E-1;9,757332802E0
1,543140591E2;-1,106680483E-1;-3,086741269E-1;9,647262573E0
1,544140591E2;-9,810572863E-2;-2,985046208E-1;9,598808289E0
1,545140591E2;3,110669367E-2;-2,416750938E-1;9,776474953E0
1,546140591E2;1,172483116E-1;-2,440679073E-1;9,932008743E0
1,547140591E2;2,243271172E-1;-1,836491376E-1;9,990034103E0
1,548140591E2;2,679961324E-1;-1,854437590E-1;1,015274620E1
1,549140591E2;1,860419661E-1;-2,428714931E-1;1,009412193E1
1,550140591E2;1,172483116E-1;-2,697907388E-1;9,841081619E0
1,551140591E2;6,759724021E-2;-2,841476798E-1;9,691530228E0
1,552140591E2;-4,486542568E-2;-4,869394004E-1;9,306285858E0
1,553140591E2;-2,512463741E-2;-5,114658475E-1;8,623732567E0
1,554140591E2;-4,785645287E-3;-4,289134443E-1;8,623134613E0
1,555140591E2;1,806581169E-1;-3,870390654E-1;9,811769485E0
1,556140591E2;1,555334777E-1;-2,727817893E-1;1,053320503E1
1,557140591E2;3,409772366E-2;-1,304088384E-1;1,087896824E1
1,558140591E2;1,136590727E-2;-1,704886109E-1;1,046082211E1
1,559140591E2;-1,076770201E-2;-1,986042857E-1;9,439086914E0
1,560140591E2;4,127619043E-2;-2,321037948E-1;9,153144836E0
1,561140591E2;-6,161518395E-2;-1,950150430E-1;8,993423462E0
1,562140591E2;-1,220339537E-1;-3,050848842E-1;9,280562401E0
1,563140591E2;-3,403790295E-1;-4,007977843E-1;9,806385040E0
1,564140591E2;-4,181457460E-1;-3,708875179E-1;1,013121128E1
1,565140591E2;-2,877369225E-1;-2,291127741E-1;1,045723343E1
1,566140591E2;-2,015953064E-1;-2,255235314E-1;1,027956581E1
1,567140591E2;-7,178468257E-2;-2,177468538E-1;9,860821724E0
1,568140591E2;4,845465720E-2;-3,014956415E-1;9,360722542E0
1,569140591E2;1,459621787E-1;-3,116651475E-1;9,202795982E0
1,570140591E2;1,453639716E-1;-2,883351147E-1;9,314660072E0
1,571140591E2;1,082752272E-1;-2,548356056E-1;9,512067795E0
1,572140591E2;9,511470050E-2;-2,129612118E-1;9,972686768E0
1,573140591E2;9,332008660E-2;-2,602194548E-1;1,010967541E1
1,574140591E2;2,057827413E-1;-2,542374134E-1;1,016231823E1
1,575140591E2;2,081755698E-1;-2,464607358E-1;9,954740524E0
1,576140591E2;1,824527234E-1;-2,829512656E-1;9,516854286E0
1,577140591E2;1,357926875E-1;-2,811566591E-1;9,391828537E0
1,578140591E2;8,315058798E-2;-2,901297510E-1;9,445667267E0
1,579140591E2;6,340979785E-2;-2,584248483E-1;9,620343208E0
1,580140591E2;1,555334684E-2;-2,590230405E-1;9,980463028E0
1,581140591E2;-4,666004330E-2;-1,974078715E-1;1,002353382E1
1,582140591E2;-2,333002090E-1;-2,979064286E-1;9,868000984E0
1,583140591E2;-2,368894368E-1;-3,224328458E-1;9,817750931E0
1,584140591E2;-1,974078715E-1;-2,321037948E-1;9,919445992E0
1,585140591E2;-1,549352705E-1;-2,458625287E-1;9,863214493E0
1,586140591E2;-5,982056633E-2;-2,093719840E-1;9,866206169E0
1,587140591E2;-5,982056633E-2;-2,338984162E-1;9,770493507E0
1,588140591E2;-6,520441920E-2;-2,721835673E-1;9,576674461E0
1,589140591E2;-2,871387079E-2;-2,955136001E-1;9,514460564E0
1,590140591E2;5,443671346E-2;-2,841476798E-1;9,709476471E0
1,591140591E2;7,118647546E-2;-2,739782035E-1;9,950552940E0
1,592140591E2;8,973085135E-2;-2,775674164E-1;9,937392235E0
1,593140591E2;1,453639716E-1;-2,416750938E-1;9,918250084E0
1,594140591E2;1,357926875E-1;-2,787638307E-1;9,776474953E0
1,595140591E2;1,962114573E-1;-2,632105052E-1;9,646066666E0
1,596140591E2;1,286142170E-1;-2,745763958E-1;9,607182503E0
1,597140591E2;7,657032460E-2;-2,973082066E-1;9,602396965E0
1,598140591E2;5,563312769E-2;-2,877369225E-1;9,686744690E0
1,599140591E2;4,965107143E-2;-2,416750938E-1;9,867402077E0
1,600140591E2;2,931207791E-2;-2,422732860E-1;9,888937950E0
1,601140591E2;-5,682953820E-2;-2,853440940E-1;9,816555023E0
1,602140591E2;-6,999006122E-2;-3,050848842E-1;9,781859398E0
1,603140591E2;-7,118647546E-2;-2,919243574E-1;9,767501831E0
1,604140591E2;-2,991028316E-2;-2,691925466E-1;9,806385040E0
1,605140591E2;-6,161518395E-2;-2,524427772E-1;9,781260490E0
1,606140591E2;-9,631111473E-2;-2,823530734E-1;9,763913155E0
1,607140591E2;-9,990034252E-2;-2,638086975E-1;9,735198975E0
1,608140591E2;-8,554340899E-2;-2,356930375E-1;9,747760773E0
1,609140591E2;-5,383851007E-3;-2,721835673E-1;9,827920914E0
1,610140591E2;1,196411322E-3;-2,835494876E-1;9,854840279E0
1,611140591E2;7,597211748E-2;-2,715853751E-1;9,916455269E0
1,612140591E2;6,161518395E-2;-2,907279432E-1;9,851848602E0
1,613140591E2;1,262213886E-1;-2,913261652E-1;9,653842926E0
1,614140591E2;1,375873089E-1;-2,799602449E-1;9,592825890E0
1,615140591E2;5,144568533E-2;-3,008974493E-1;9,612566948E0
1,616140591E2;4,366901144E-2;-2,763710022E-1;9,752547264E0
1,617140591E2;4,606183618E-2;-2,727817893E-1;9,786644936E0
1,618140591E2;6,759724021E-2;-2,781656384E-1;9,799804688E0
1,619140591E2;1,070788130E-1;-2,709871531E-1;9,795618057E0
1,620140591E2;1,070788130E-1;-2,709871531E-1;9,795618057E0
1,621140591E2;4,307080805E-2;-2,793620527E-1;9,708877563E0
1,622140591E2;-3,529413417E-2;-2,685943544E-1;9,634700775E0
1,623140591E2;-3,529413417E-2;-2,745763958E-1;9,607781410E0
1,624140591E2;-1,004985496E-1;-2,578266263E-1;9,770493507E0
1,625140591E2;-1,172483116E-1;-2,410768867E-1;9,860223770E0
1,626140591E2;-6,699903309E-2;-2,703889608E-1;9,865608215E0
1,627140591E2;-9,870393574E-2;-2,667997181E-1;9,778867722E0
1,628140591E2;-3,170489892E-2;-3,008974493E-1;9,744172096E0
1,629140591E2;4,426721856E-2;-2,679961324E-1;9,871589661E0
1,630140591E2;1,872383654E-1;-2,141576260E-1;9,866804123E0
1,631140591E2;8,494520187E-2;-2,763710022E-1;9,691530228E0
1,632140591E2;1,794616925E-3;-3,278166950E-1;9,369695663E0
1,633140591E2;-4,486542568E-2;-3,732803464E-1;9,059226990E0
1,634140591E2;-9,631111473E-2;-3,457628787E-1;9,396614075E0
1,635140591E2;-1,471585929E-1;-2,530409992E-1;9,540184021E0
1,636140591E2;-1,567298770E-1;-2,841476798E-1;1,050030422E1
1,637140591E2;-2,153540403E-1;-3,589233849E-3;1,103031445E1
1,638140591E2;-2,452643216E-2;-1,806581169E-1;1,003370380E1
1,639140591E2;1,651047617E-1;-2,099701911E-1;9,645467758E0
1,640140591E2;1,136590764E-1;-2,488535494E-1;9,090931892E0
1,641140591E2;5,024927482E-2;-2,069791555E-1;9,254241943E0
1,642140591E2;8,015955985E-2;-2,691925466E-1;9,714859962E0
1,643140591E2;-2,213360928E-2;-2,853440940E-1;1,020419216E1
1,644140591E2;-4,845465720E-2;-2,291127741E-1;1,027298546E1
1,645140591E2;7,178467698E-3;-2,165504545E-1;1,007019424E1
1,646140591E2;1,040877849E-1;-2,177468538E-1;9,963713646E0
1,647140591E2;2,835494876E-1;-2,955136001E-1;9,409774780E0
1,648140591E2;2,967100143E-1;-2,721835673E-1;9,345767021E0
1,649140591E2;2,614158690E-1;-3,068794906E-1;9,327222824E0
1,650140591E2;2,386840582E-1;-2,626122832E-1;9,512067795E0
1,651140591E2;1,866401732E-1;-2,380858511E-1;9,840482712E0
1,652140591E2;1,214357466E-1;-1,962114573E-1;1,006839943E1
1,653140591E2;4,426721856E-2;-2,859423161E-1;1,005224800E1
1,654140591E2;1,016949583E-2;-2,285145670E-1;9,985248566E0
1,655140591E2;3,828516230E-2;-2,171486616E-1;9,769296646E0
1,656140591E2;-2,153540403E-2;-2,739782035E-1;9,756135941E0
1,657140591E2;-1,968096644E-1;-2,596212626E-1;9,506086349E0
1,658140591E2;-1,549352705E-1;-3,044866920E-1;9,641879082E0
1,659140591E2;-1,495514214E-1;-1,836491376E-1;9,900303841E0
1,660140591E2;-8,554340899E-2;-2,386840582E-1;1,002891827E1
1,661140591E2;-8,793623000E-2;-2,440679073E-1;9,963713646E0
1,662140591E2;-6,699903309E-2;-3,104687333E-1;9,880562782E0
1,663140591E2;-6,759724021E-2;-2,955136001E-1;9,787840843E0
1,664140591E2;-4,546362907E-2;-2,781656384E-1;9,748359680E0
1,665140591E2;1,375873014E-2;-2,374876440E-1;9,653842926E0
1,666140591E2;1,495514158E-2;-3,074777126E-1;9,763913155E0
1,667140591E2;4,366901144E-2;-1,866401732E-1;9,999606133E0
1,668140591E2;8,554340899E-2;-2,458625287E-1;9,884750366E0
1,669140591E2;6,281159073E-2;-2,458625287E-1;9,887143135E0
1,670140591E2;6,879365444E-2;-2,727817893E-1;9,826724052E0
1,671140591E2;8,255238086E-2;-3,068794906E-1;9,738189697E0
1,672140591E2;6,221338734E-2;-2,709871531E-1;9,749555588E0
1,673140591E2;5,982056633E-2;-3,206382394E-1;9,789037704E0
1,674140591E2;-1,794616925E-3;-3,122633696E-1;9,774082184E0
1,675140591E2;-3,349951655E-2;-2,721835673E-1;9,826724052E0
1,676140591E2;-4,606183618E-2;-2,991028428E-1;9,848259926E0
1,677140591E2;-5,982056726E-3;-2,368894368E-1;9,850652695E0
1,678140591E2;3,409772366E-2;-2,315055877E-1;9,981659889E0
1,679140591E2;1,974078640E-2;-2,494517565E-1;9,997811317E0
1,680140591E2;1,794617064E-2;-2,464607358E-1;9,872786522E0
1,681140591E2;5,443671346E-2;-3,008974493E-1;9,881759644E0
1,682140591E2;8,374879137E-3;-2,985046208E-1;9,728618622E0
1,683140591E2;2,691925503E-2;-3,086741269E-1;9,614959717E0
1,684140591E2;-1,375873014E-2;-3,056831062E-1;9,603593826E0
1,685140591E2;5,982056609E-4;-3,433700502E-1;9,643673897E0
1,686140591E2;1,435693540E-2;-3,122633696E-1;9,820742607E0
1,687140591E2;-6,580262445E-3;-3,505485058E-1;9,745368004E0
1,688140591E2;4,785645381E-2;-2,733799815E-1;9,427123070E0
1,689140591E2;4,307080805E-2;-2,829512656E-1;9,772886276E0
1,690140591E2;-6,161518395E-2;-1,106680483E-1;1,045962620E1
1,691140591E2;-1,399801224E-1;-1,692921966E-1;1,020538902E1
1,692140591E2;-1,896311939E-1;-2,991028428E-1;9,789037704E0
1,693140591E2;-1,435693651E-1;-2,608176768E-1;9,586843491E0
1,694140591E2;-5,383851007E-3;-1,884347796E-1;9,753145218E0
1,695140591E2;1,238285750E-1;-2,895315289E-1;9,871589661E0
1,696140591E2;9,391828626E-2;-4,193421602E-1;9,739984512E0
1,697140591E2;3,170489892E-2;-4,247260094E-1;9,552745819E0
1,698140591E2;2,213360928E-2;-3,218346536E-1;9,530612946E0
1,699140591E2;7,477571070E-2;-3,062812984E-1;9,737591743E0
1,700140591E2;5,982056633E-2;-2,997010350E-1;9,812965393E0
1,701140591E2;2,871387079E-2;-2,554338276E-1;9,435498238E0
1,702140591E2;4,486542568E-2;-3,643072546E-1;9,272188187E0
1,703140591E2;2,021935135E-1;-1,674975902E-1;9,903294563E0
1,704140591E2;1,722832322E-1;-9,690931439E-2;1,029930687E1
1,705140591E2;7,058826834E-2;-1,704886109E-1;1,026520920E1
1,706140591E2;5,204389244E-2;-2,219343036E-1;1,012104130E1
1,707140591E2;-5,084748194E-2;-2,703889608E-1;9,622735977E0
1,708140591E2;-1,375873089E-1;-2,799602449E-1;9,461818695E0
1,709140591E2;-1,202393398E-1;-3,260220885E-1;9,300901413E0
1,710140591E2;-9,152546525E-2;-4,719842672E-1;9,504889488E0
1,711140591E2;-9,032905847E-2;-2,973082066E-1;1,024247742E1
1,712140591E2;7,597211748E-2;-1,782652885E-1;1,083470058E1
1,713140591E2;2,093719877E-2;-1,573280841E-1;1,032323551E1
1,714140591E2;1,220339537E-1;-2,697907388E-1;1,001396275E1
1,715140591E2;4,905286431E-2;-3,409772217E-1;9,127422333E0
1,716140591E2;6,400800496E-2;-3,409772217E-1;9,010771751E0
1,717140591E2;-1,375873014E-2;-3,200400174E-1;9,192028046E0
1,718140591E2;1,615155302E-2;-2,536391914E-1;9,925428391E0
1,719140591E2;1,375873014E-2;-2,015953064E-1;1,023828983E1
1,720140591E2;7,357929647E-2;-1,878365725E-1;1,033938694E1
1,721140591E2;5,862415582E-2;-1,746760458E-1;1,019222832E1
1,722140591E2;5,862415582E-2;-2,979064286E-1;9,595816612E0
1,723140591E2;5,383851007E-2;-2,614158690E-1;9,387641907E0
1,724140591E2;2,871387079E-2;-2,835494876E-1;9,494720459E0
1,725140591E2;-1,914258115E-2;-3,014956415E-1;9,602995872E0
1,726140591E2;-8,973085135E-2;-2,614158690E-1;9,865009308E0
1,727140591E2;-7,776673883E-2;-2,685943544E-1;1,000977516E1
1,728140591E2;-6,460621208E-2;-2,548356056E-1;1,009950638E1
1,729140591E2;-7,776673883E-2;-2,781656384E-1;1,006540871E1
1,730140591E2;2,392822644E-3;-3,391826153E-1;9,814760208E0
1,731140591E2;3,349951655E-2;-3,302095234E-1;9,710672379E0
1,732140591E2;6,041877344E-2;-2,446661144E-1;9,610772133E0
1,733140591E2;6,640082598E-2;-2,494517565E-1;9,546165466E0
1,734140591E2;1,040877849E-1;-2,404786795E-1;9,671789169E0
1,735140591E2;1,100698411E-1;-2,327020019E-1;9,780662537E0
1,736140591E2;1,250249892E-1;-2,626122832E-1;9,913464546E0
1,737140591E2;1,130608693E-1;-2,967100143E-1;9,964909554E0
1,738140591E2;8,554340899E-2;-3,122633696E-1;9,906285286E0
1,739140591E2;7,896314561E-2;-2,883351147E-1;9,851848602E0
1,740140591E2;7,417750359E-2;-2,715853751E-1;9,709476471E0
1,741140591E2;-2,991028363E-3;-2,913261652E-1;9,520442963E0
1,742140591E2;1,316052489E-2;-2,512463629E-1;9,522237778E0
1,743140591E2;3,349951655E-2;-2,368894368E-1;9,719047546E0
1,744140591E2;2,273181453E-2;-2,536391914E-1;9,836296082E0
1,745140591E2;-3,589233849E-3;-2,494517565E-1;1,002473068E1
1,746140591E2;-2,991028363E-3;-2,937189937E-1;1,006241703E1
1,747140591E2;-3,948157281E-2;-2,578266263E-1;9,892526627E0
1,748140591E2;-3,349951655E-2;-2,440679073E-1;9,770493507E0
1,749140591E2;-1,316052489E-2;-2,488535494E-1;9,601799011E0
1,750140591E2;2,093719877E-2;-2,650051117E-1;9,562915802E0
1,751140591E2;5,443671346E-2;-2,775674164E-1;9,693324089E0
1,752140591E2;4,845465720E-2;-2,745763958E-1;9,806385040E0
1,753140591E2;3,050848842E-2;-2,614158690E-1;9,996614456E0
1,754140591E2;4,307080805E-2;-2,656033039E-1;1,000199890E1
1,755140591E2;6,819544733E-2;-2,913261652E-1;9,888937950E0
1,756140591E2;3,349951655E-2;-2,859423161E-1;9,794421196E0
1,757140591E2;9,571290761E-2;-2,823530734E-1;9,618548393E0
1,758140591E2;9,152546525E-2;-3,122633696E-1;9,544969559E0
1,759140591E2;3,170489892E-2;-2,279163599E-1;9,653842926E0
1,760140591E2;3,768695518E-2;-2,362912297E-1;9,773484230E0
1,761140591E2;2,871387079E-2;-2,141576260E-1;9,953543663E0
1,762140591E2;1,076770201E-2;-2,584248483E-1;1,005942631E1
1,763140591E2;5,982056726E-3;-2,650051117E-1;1,002532864E1
1,764140591E2;4,366901144E-2;-2,500499785E-1;9,961320877E0
1,765140591E2;-1,016949583E-2;-3,170489967E-1;9,659226418E0
1,766140591E2;-2,333002165E-2;-3,092723191E-1;9,762118340E0
1,767140591E2;-3,230310604E-2;-2,829512656E-1;9,774680138E0
1,768140591E2;6,999006122E-2;-2,685943544E-1;9,775279045E0
1,769140591E2;6,281159073E-2;-2,865405083E-1;9,798608780E0
1,770140591E2;6,161518395E-2;-2,823530734E-1;9,859027863E0
1,771140591E2;5,503492057E-2;-2,991028428E-1;9,853643417E0
1,772140591E2;5,324030295E-2;-3,170489967E-1;9,835697174E0
1,773140591E2;8,015955985E-2;-2,560320199E-1;9,808777809E0
1,774140591E2;7,836493850E-2;-2,691925466E-1;9,737591743E0
1,775140591E2;5,623133108E-2;-2,255235314E-1;9,699904442E0
1,776140591E2;2,751746029E-2;-2,542374134E-1;9,645467758E0
1,777140591E2;3,768695518E-2;-2,721835673E-1;9,705288887E0
1,778140591E2;1,136590727E-2;-2,602194548E-1;9,865608215E0
1,779140591E2;6,580262445E-3;-2,679961324E-1;9,830911636E0
1,780140591E2;2,871387079E-2;-2,380858511E-1;9,936196327E0
1,781140591E2;4,785645287E-3;-2,626122832E-1;9,899705887E0
1,782140591E2;-3,110669367E-2;-2,446661144E-1;9,851848602E0
1,783140591E2;-2,333002165E-2;-2,458625287E-1;9,728020668E0
1,784140591E2;1,555334684E-2;-2,632105052E-1;9,721440315E0
1,785140591E2;2,991028363E-3;-2,518445849E-1;9,789037704E0
1,786140591E2;4,965107143E-2;-2,578266263E-1;9,814760208E0
1,787140591E2;7,537391037E-2;-2,775674164E-1;9,762716293E0
1,788140591E2;1,232303679E-1;-2,877369225E-1;9,808777809E0
1,789140591E2;1,190429255E-1;-2,584248483E-1;9,813564301E0
1,790140591E2;1,489532143E-1;-2,679961324E-1;9,824331284E0
1,791140591E2;7,537391037E-2;-2,530409992E-1;9,911071777E0
1,792140591E2;5,982056633E-2;-2,368894368E-1;9,876375198E0
1,793140591E2;6,520441920E-2;-2,638086975E-1;9,725627899E0
1,794140591E2;7,776673883E-2;-2,841476798E-1;9,649655342E0
1,795140591E2;3,529413417E-2;-2,590230405E-1;9,680164337E0
1,796140591E2;2,153540403E-2;-3,176472187E-1;9,737591743E0
1,797140591E2;2,931207791E-2;-3,337987661E-1;9,756135941E0
1,798140591E2;1,555334684E-2;-2,542374134E-1;9,880562782E0
1,799140591E2;2,751746029E-2;-2,321037948E-1;9,974481583E0
1,800140591E2;1,136590727E-2;-2,063809484E-1;9,957731247E0
1,801140591E2;-1,734796353E-2;-2,590230405E-1;9,853643417E0
1,802140591E2;-3,349951655E-2;-2,422732860E-1;9,784252167E0
1,803140591E2;-3,828516230E-2;-2,889333367E-1;9,707681656E0
1,804140591E2;-4,965107143E-2;-3,044866920E-1;9,644869804E0
1,805140591E2;1,794617064E-2;-2,949153781E-1;9,725627899E0
1,806140591E2;2,572284266E-2;-2,739782035E-1;9,814162254E0
1,807140591E2;8,135596663E-2;-2,584248483E-1;9,948758125E0
1,808140591E2;1,238285750E-1;-2,350948304E-1;9,948758125E0
1,809140591E2;1,136590764E-1;-2,506481707E-1;9,813564301E0
1,810140591E2;1,052841991E-1;-2,596212626E-1;9,734601021E0
1,811140591E2;1,471585929E-1;-2,321037948E-1;9,803394318E0
1,812140591E2;1,304088384E-1;-2,662015259E-1;9,736394882E0
1,813140591E2;1,082752272E-1;-3,140579760E-1;9,676574707E0
1,814140591E2;9,092725813E-2;-2,787638307E-1;9,701101303E0
1,815140591E2;4,965107143E-2;-2,763710022E-1;9,785448074E0
1,816140591E2;1,250249892E-1;-2,147558331E-1;9,980463028E0
1,817140591E2;9,451649338E-2;-3,140579760E-1;9,968499184E0
1,818140591E2;7,776673418E-3;-3,242274821E-1;9,732806206E0
1,819140591E2;-2,811566554E-2;-2,691925466E-1;9,622138023E0
1,820140591E2;-3,050848842E-2;-2,566302419E-1;9,658030510E0
1,821140591E2;-1,549352705E-1;-2,578266263E-1;9,689137459E0
1,822140591E2;-9,032905847E-2;-2,608176768E-1;9,914660454E0
1,823140591E2;-1,112662554E-1;-2,374876440E-1;9,851848602E0
1,824140591E2;-1,034895778E-1;-2,937189937E-1;9,806385040E0
1,825140591E2;-8,973085135E-2;-2,464607358E-1;9,918848038E0
1,826140591E2;-9,272187948E-2;-2,638086975E-1;9,860223770E0
1,827140591E2;-5,982056633E-2;-2,255235314E-1;9,884750366E0
1,828140591E2;3,469592705E-2;-2,452643216E-1;9,820143700E0
1,829140591E2;3,708875179E-2;-2,249253243E-1;9,759725571E0
1,830140591E2;6,759724021E-2;-2,787638307E-1;9,631709099E0
1,831140591E2;6,879365444E-2;-2,967100143E-1;9,628718376E0
1,832140591E2;1,280160099E-1;-3,110669553E-1;9,815957069E0
1,833140591E2;8,793623000E-2;-2,338984162E-1;9,879366875E0
1,834140591E2;1,758724600E-1;-2,482553422E-1;1,006421185E1
1,835140591E2;2,362912297E-1;-2,183450609E-1;1,000857925E1
1,836140591E2;1,423729509E-1;-2,662015259E-1;9,723235130E0
1,837140591E2;1,537388563E-1;-2,338984162E-1;9,672985077E0
1,838140591E2;7,657032460E-2;-2,757728100E-1;9,528220177E0
1,839140591E2;4,725824669E-2;-2,901297510E-1;9,607182503E0
1,840140591E2;7,417750359E-2;-2,919243574E-1;9,883553505E0
1,841140591E2;5,623133108E-2;-2,243271172E-1;1,000798035E1
1,842140591E2;5,623133108E-2;-2,656033039E-1;9,952347755E0
1,843140591E2;5,383851007E-3;-2,967100143E-1;9,748957634E0
1,844140591E2;-4,845465720E-2;-2,871387303E-1;9,619147301E0
1,845140591E2;-6,699903309E-2;-3,469592929E-1;9,828518867E0
1,846140591E2;-2,105683982E-1;-1,716850251E-1;9,513264656E0
1,847140591E2;5,742774159E-2;-1,561316848E-1;1,006241703E1
1,848140591E2;1,459621787E-1;-2,045863420E-1;1,014736271E1
1,849140591E2;1,328016520E-1;-2,488535494E-1;9,966106415E0
1,850140591E2;6,460621208E-2;-2,763710022E-1;9,775279045E0
1,851140591E2;-2,392822690E-2;-3,409772217E-1;9,519845009E0
1,852140591E2;-2,632104978E-2;-3,200400174E-1;9,591031075E0
1,853140591E2;-3,708875179E-2;-3,439682424E-1;9,600603104E0
1,854140591E2;8,075776696E-2;-2,129612118E-1;9,733404160E0
1,855140591E2;9,032905847E-2;-1,088734269E-1;9,771689415E0
1,856140591E2;1,214357466E-1;-2,979064286E-1;1,008754253E1
1,857140591E2;-2,033899166E-2;-1,950150430E-1;9,991828918E0
1,858140591E2;9,571290761E-2;-2,536391914E-1;9,831509590E0
1,859140591E2;9,332008660E-2;-3,020938635E-1;9,598209381E0
1,860140591E2;6,520441920E-2;-3,038884699E-1;9,550353050E0
1,861140591E2;0,000000000E0;-2,745763958E-1;9,605388641E0
1,862140591E2;-2,213360928E-2;-3,038884699E-1;9,690333366E0
1,863140591E2;-8,913264424E-2;-1,746760458E-1;9,966704369E0
1,864140591E2;-4,785645381E-2;-3,188436031E-1;1,008634567E1
1,865140591E2;1,734796353E-2;-2,733799815E-1;1,003848934E1
1,866140591E2;1,674975827E-2;-2,787638307E-1;9,753743172E0
1,867140591E2;3,170489892E-2;-2,530409992E-1;9,616754532E0
1,868140591E2;2,632104978E-2;-2,907279432E-1;9,547362328E0
1,869140591E2;-1,854437590E-2;-2,733799815E-1;9,640682220E0
1,870140591E2;-2,512463741E-2;-2,602194548E-1;9,803394318E0
1,871140591E2;6,340979785E-2;-2,213360965E-1;1,019462109E1
1,872140591E2;4,965107143E-2;-1,776670814E-1;1,013300610E1
1,873140591E2;1,034895778E-1;-3,020938635E-1;9,971489906E0
1,874140591E2;4,845465720E-2;-3,487538993E-1;9,665208817E0
1,875140591E2;3,349951655E-2;-2,769692242E-1;9,554540634E0
1,876140591E2;5,982056633E-2;-2,889333367E-1;9,561120987E0
1,877140591E2;7,776673883E-2;-3,110669553E-1;9,677172661E0
1,878140591E2;9,391828626E-2;-2,392822653E-1;9,775876999E0
1,879140591E2;1,124626622E-1;-2,632105052E-1;1,001156998E1
1,880140591E2;1,124626622E-1;-3,020938635E-1;9,863214493E0
1,881140591E2;7,836493850E-2;-2,572284341E-1;9,738788605E0
1,882140591E2;-4,187439568E-3;-2,650051117E-1;9,747760773E0
1,883140591E2;-9,571290761E-2;-2,679961324E-1;9,638887405E0
1,884140591E2;2,153540403E-2;-2,452643216E-1;9,771689415E0
1,885140591E2;1,674975827E-2;-1,938186288E-1;9,838688850E0
1,886140591E2;-2,033899166E-2;-1,686939895E-1;9,881759644E0
1,887140591E2;2,392822644E-3;-2,721835673E-1;1,003071213E1
1,888140591E2;-3,050848842E-2;-2,715853751E-1;9,742377281E0
1,889140591E2;1,316052489E-2;-2,679961324E-1;9,640084267E0
1,890140591E2;3,469592705E-2;-3,553341627E-1;9,753743172E0
1,891140591E2;6,340979785E-2;-2,823530734E-1;9,654440880E0
1,892140591E2;1,369891018E-1;-2,638086975E-1;1,017607689E1
1,893140591E2;1,393819153E-1;-1,782652885E-1;1,008814049E1
1,894140591E2;1,304088384E-1;-2,069791555E-1;1,022692394E1
1,895140591E2;1,058823988E-1;-2,703889608E-1;9,730413437E0
1,896140591E2;1,172483116E-1;-3,475574851E-1;9,322437286E0
1,897140591E2;7,058826834E-2;-4,259224236E-1;9,290732384E0
1,898140591E2;2,153540403E-2;-3,714857101E-1;9,327820778E0
1,899140591E2;-8,374879509E-2;-3,349951804E-1;9,850054741E0
1,900140591E2;-3,409772366E-2;-2,410768867E-1;1,029691410E1
1,901140591E2;-1,256231871E-2;-8,195417374E-2;1,054397297E1
1,902140591E2;-8,015955985E-2;-1,316052526E-1;1,013898754E1
1,903140591E2;-5,204389244E-2;-2,961117923E-1;9,509077072E0
1,904140591E2;-3,948157281E-2;-2,614158690E-1;9,241679192E0
1,905140591E2;4,606183618E-2;-3,361915946E-1;9,300901413E0
1,906140591E2;2,333002165E-2;-3,074777126E-1;9,585647583E0
1,907140591E2;8,973085321E-3;-2,506481707E-1;1,007677460E1
1,908140591E2;-1,734796353E-2;-2,075773627E-1;1,032443142E1
1,909140591E2;-1,375873089E-1;-2,117647976E-1;1,018684387E1
1,910140591E2;-7,298108935E-2;-1,926222295E-1;1,001396275E1
1,911140591E2;-6,340979785E-2;-3,056831062E-1;9,683155060E0
1,912140591E2;-5,742774159E-2;-2,500499785E-1;9,487542152E0
1,913140591E2;7,178468257E-2;-2,865405083E-1;9,354142189E0
1,914140591E2;1,788634956E-1;-2,344966233E-1;9,714262009E0
1,915140591E2;1,322034448E-1;-2,033899277E-1;9,869794846E0
1,916140591E2;9,391828626E-2;-2,386840582E-1;1,006181908E1
1,917140591E2;3,409772366E-2;-2,392822653E-1;1,006720352E1
1,918140591E2;6,340979785E-2;-2,590230405E-1;9,897313118E0
1,919140591E2;6,879365444E-2;-2,255235314E-1;9,775279045E0
1,920140591E2;8,614161611E-2;-2,530409992E-1;9,598808289E0
1,921140591E2;8,673982322E-2;-2,853440940E-1;9,493523598E0
1,922140591E2;7,956135273E-2;-2,745763958E-1;9,495916367E0
1,923140591E2;8,434699476E-2;-2,500499785E-1;9,677172661E0
1,924140591E2;7,298108935E-2;-2,333002090E-1;9,990034103E0
1,925140591E2;3,230310604E-2;-2,171486616E-1;1,011206818E1
1,926140591E2;-9,690931439E-2;-2,333002090E-1;1,004387283E1
1,927140591E2;-3,948157281E-2;-2,638086975E-1;1,012881851E1
1,928140591E2;-9,032905847E-2;-2,386840582E-1;9,716055870E0
1,929140591E2;-9,511470050E-2;-2,811566591E-1;9,610174179E0
1,930140591E2;-7,417750359E-2;-2,925225794E-1;9,505488396E0
1,931140591E2;-6,281159073E-2;-2,392822653E-1;9,566504478E0
1,932140591E2;1,256231871E-2;-2,374876440E-1;9,863214493E0
1,933140591E2;1,375873014E-2;-3,523431420E-1;9,924231529E0
1,934140591E2;1,142572835E-1;-3,002992272E-1;1,022213840E1
1,935140591E2;7,537391037E-2;-1,782652885E-1;1,029212856E1
1,936140591E2;6,400800496E-2;-3,212364316E-1;9,820143700E0
1,937140591E2;4,127619043E-2;-2,745763958E-1;9,734601021E0
1,938140591E2;8,913264424E-2;-3,116651475E-1;9,097511292E0
1,939140591E2;1,615155302E-2;-2,602194548E-1;9,535398483E0
1,940140591E2;1,094716340E-1;-3,182454109E-1;9,690931320E0
1,941140591E2;8,853443712E-2;-3,026920557E-1;9,860223770E0
1,942140591E2;2,931207791E-2;-2,309073806E-1;9,784252167E0
1,943140591E2;5,264209956E-2;-6,041877344E-2;1,071805096E1
1,944140591E2;3,290131316E-2;-2,512463741E-2;1,067378330E1
1,945140591E2;2,093719877E-2;-3,320041299E-1;9,844072342E0
1,946140591E2;-3,708875179E-2;-2,362912297E-1;9,507282257E0
1,947140591E2;3,529413417E-2;-3,122633696E-1;9,075976372E0
1,948140591E2;7,776673418E-3;-2,386840582E-1;9,205786705E0
1,949140591E2;9,631111473E-2;-3,714857101E-1;9,886545181E0
1,950140591E2;1,106680483E-1;-2,416750938E-1;1,030409241E1
1,951140591E2;1,405783296E-1;-1,992024779E-1;1,039681435E1
1,952140591E2;1,381855011E-1;-1,274178028E-1;1,027777100E1
1,953140591E2;1,339980662E-1;-2,530409992E-1;9,454640388E0
1,954140591E2;8,793623000E-2;-2,506481707E-1;9,130413055E0
1,955140591E2;1,704886109E-1;-2,835494876E-1;9,211171150E0
1,956140591E2;1,417747438E-1;-2,853440940E-1;9,340981483E0
1,957140591E2;7,058826834E-2;-2,267199457E-1;9,905687332E0
1,958140591E2;5,742774159E-2;-2,195414752E-1;1,026939678E1
1,959140591E2;-4,187439755E-2;-1,393819153E-1;1,045364380E1
1,960140591E2;-6,101697683E-2;-1,591227055E-1;1,023290634E1
1,961140591E2;-1,076770201E-1;-2,368894368E-1;9,701699257E0
1,962140591E2;-1,208375469E-1;-3,182454109E-1;9,510871887E0
1,963140591E2;-1,016949639E-1;-3,302095234E-1;9,339186668E0
1,964140591E2;-9,870393574E-2;-2,679961324E-1;9,729815483E0
1,965140591E2;-8,195417374E-2;-2,685943544E-1;9,934999466E0
1,966140591E2;-1,052841991E-1;-1,878365725E-1;1,021974564E1
1,967140591E2;-8,973085135E-2;-2,398804724E-1;1,018265629E1
1,968140591E2;-9,690931439E-2;-2,464607358E-1;9,929018021E0
1,969140591E2;-7,597211748E-2;-2,751746178E-1;9,814162254E0
1,970140591E2;9,930214286E-2;-1,884347796E-1;9,823733330E0
1,971140591E2;1,268195957E-1;-2,338984162E-1;9,714262009E0
1,972140591E2;1,974078715E-1;-2,602194548E-1;9,643673897E0
1,973140591E2;1,806581169E-1;-1,573280841E-1;9,553344727E0
1,974140591E2;1,244267747E-1;-2,003988922E-1;9,897313118E0
1,975140591E2;1,010967568E-1;-3,870390654E-1;1,000977516E1
1,976140591E2;8,195417374E-2;-3,541377485E-1;9,856635094E0
1,977140591E2;7,178468257E-2;-3,074777126E-1;9,973284721E0
1,978140591E2;9,032905847E-2;-8,793623000E-2;1,002353382E1
1,979140591E2;1,734796464E-1;-2,542374134E-1;9,959526062E0
1,980140591E2;1,854437590E-1;-2,099701911E-1;9,835099220E0
1,981140591E2;1,232303679E-1;-2,757728100E-1;9,772886276E0
1,982140591E2;-1,914258115E-2;-3,152543902E-1;9,702297211E0
1,983140591E2;-5,324030295E-2;-4,145565331E-1;9,637093544E0
1,984140591E2;-7,477571070E-2;-3,332005441E-1;9,858428955E0
1,985140591E2;-4,486542568E-2;-3,242274821E-1;9,827322960E0
1,986140591E2;7,776673418E-3;-2,566302419E-1;9,897313118E0
1,987140591E2;-1,196411345E-2;-2,476571500E-1;9,850054741E0
1,988140591E2;3,469592705E-2;-2,739782035E-1;9,793225288E0
1,989140591E2;-1,914258115E-2;-2,691925466E-1;9,710074425E0
1,990140591E2;-7,776673418E-3;-2,512463629E-1;9,766305923E0
1,991140591E2;-1,136590727E-2;-2,841476798E-1;9,751350403E0
1,992140591E2;-6,580262445E-3;-3,002992272E-1;9,725028992E0
1,993140591E2;-5,204389244E-2;-3,104687333E-1;9,799804688E0
1,994140591E2;-6,759724021E-2;-2,763710022E-1;9,826126099E0
1,995140591E2;-6,041877344E-2;-2,590230405E-1;9,936794281E0
1,996140591E2;-6,580262445E-3;-2,476571500E-1;9,911071777E0
1,997140591E2;5,503492057E-2;-2,147558331E-1;9,937990189E0
1,998140591E2;7,956135273E-2;-2,081755698E-1;9,791430473E0
1,999140591E2;1,238285750E-1;-2,069791555E-1;9,605388641E0
2,000140591E2;1,740778536E-1;-2,261217386E-1;9,594620705E0
2,001140591E2;1,674975902E-1;-2,333002090E-1;9,631111145E0
2,002140591E2;1,375873089E-1;-1,902294010E-1;9,717850685E0
2,003140591E2;1,166501045E-1;-1,453639716E-1;9,783055305E0
2,004140591E2;1,124626622E-1;-1,555334777E-1;1,008215809E1
2,005140591E2;2,213360928E-2;-1,136590764E-1;9,942177773E0
2,006140591E2;5,383851007E-2;-1,627119333E-1;9,703494072E0
2,007140591E2;2,811566554E-2;-1,310070455E-1;9,632905960E0
2,008140591E2;2,572284266E-2;-1,830509305E-1;9,729216576E0
2,009140591E2;-5,563312769E-2;-1,902294010E-1;9,847063065E0
2,010140591E2;-1,112662554E-1;-1,663011760E-1;9,888339996E0
2,011140591E2;-1,537388563E-1;-1,609173268E-1;9,933803558E0
2,012140591E2;-1,351944804E-1;-1,142572835E-1;9,825528145E0
2,013140591E2;2,991028363E-3;-1,357926875E-1;9,795019150E0
2,014140591E2;2,751746029E-2;-1,483550072E-1;9,695717812E0
2,015140591E2;6,041877344E-2;-1,824527234E-1;9,723235130E0
2,016140591E2;8,315058798E-2;-1,016949639E-1;1,002592659E1
2,017140591E2;5,383851007E-3;-1,184447184E-1;9,922437668E0
2,018140591E2;2,811566554E-2;-1,615155339E-1;9,799206734E0
2,019140591E2;1,615155302E-2;-1,932204217E-1;9,708279610E0
