"Time (s)";"Linear Acceleration x (m/s^2)";"Linear Acceleration y (m/s^2)";"Linear Acceleration z (m/s^2)"
3,607762010E-1;4,803762436E-1;-1,112713814E-1;5,383901596E-1
4,594287600E-1;6,474006176E-1;-4,506959915E-1;2,792177200E-1
5,581110240E-1;4,026894569E-1;-4,462201595E-1;8,922252655E-1
6,568082620E-1;2,484552860E-1;-8,142194748E-1;5,618667603E-1
7,554605680E-1;4,204757214E-1;-9,327211380E-1;6,069326401E-1
8,541648250E-1;5,164403915E-1;-4,502544403E-1;4,472293854E-1
9,528404950E-1;6,698181629E-1;-7,833492756E-1;2,539768219E-1
1,051524092E0;5,463528633E-2;2,909996510E-1;-5,622434616E-1
1,150197820E0;3,615795076E-1;-3,265960217E-1;-9,588499069E-1
1,248841866E0;1,435147882E0;-9,189457893E-1;9,590559006E-1
1,347537323E0;1,575933933E0;-1,781034946E0;1,533357620E0
1,446214226E0;7,373646498E-1;-7,126944065E-1;2,778534889E0
1,544895981E0;1,414910913E0;-4,024999142E-1;1,136787415E0
1,643566140E0;1,961688995E-1;-2,510011196E-1;-2,286441803E0
1,742232870E0;4,163944721E-1;-7,888725996E-1;-4,844726562E0
1,840930087E0;-2,926928997E-1;-6,483306885E-1;5,062017441E-1
1,939623194E0;-4,259025455E-1;-3,013985157E-1;1,190210342E0
2,038304165E0;4,714024067E-1;-9,342241287E-2;3,605842590E-2
2,136954701E0;-2,517771721E-2;-7,542098761E-1;5,281620026E-1
2,235624810E0;7,474923134E-1;-1,261040211E0;-1,102154732E0
2,334308945E0;2,208480835E-1;-6,448411345E-1;3,441820145E-1
2,433002418E0;-5,647981167E-1;-1,445057750E0;2,942924500E-1
2,531691823E0;-5,102515221E-2;-1,572453737E0;3,472995758E0
2,630347587E0;3,595743179E-1;-8,411139250E-2;-5,273733139E-1
2,729017440E0;1,222282887E0;-1,098215580E0;-2,481956482E-1
2,827699287E0;-1,359648466E0;-1,681096792E0;2,931737900E-1
2,926382730E0;6,893315315E-1;-4,175391495E-1;-9,711074829E-2
3,025068219E0;9,721350670E-1;-1,592583060E0;-3,815746307E-2
3,123763004E0;-6,220307946E-1;-1,861546993E0;-5,661964417E-3
3,222404995E0;2,268099785E-2;-4,013753235E-1;1,971464157E-1
3,321107258E0;2,964890599E-1;-9,058161378E-1;1,211547852E-2
3,419805451E0;3,006784916E-1;-8,983815908E-1;3,587341309E-2
3,518480351E0;2,931941450E-1;-8,958110809E-1;3,087329865E-2
3,617190731E0;2,911978960E-1;-8,889733553E-1;1,156616211E-2
3,715799275E0;2,887706459E-1;-8,815684915E-1;4,007244110E-2
3,814515729E0;3,003228307E-1;-8,651494384E-1;2,549743652E-2
3,913184330E0;3,206132948E-1;-8,814494610E-1;-3,450393677E-3
4,011846136E0;3,179508448E-1;-8,741413951E-1;1,070308685E-2
4,110543618E0;3,061569631E-1;-8,713485003E-1;2,964305878E-2
4,209192495E0;3,135102689E-1;-8,547164202E-1;2,946758270E-2
4,307904585E0;2,971465886E-1;-8,754877448E-1;2,447223663E-2
4,406564521E0;3,000679016E-1;-8,634371161E-1;1,472759247E-2
4,505262124E0;3,126753271E-1;-8,650992513E-1;1,931571960E-2
4,603926342E0;2,966798246E-1;-8,572062254E-1;9,552001953E-3
4,702589379E0;3,053389192E-1;-8,638381958E-1;9,987831116E-3
4,801298192E0;3,000127375E-1;-8,276282549E-1;2,839374542E-2
4,899965045E0;2,895033956E-1;-9,146368504E-1;3,357315063E-2
4,998652710E0;2,854175270E-1;-7,933480740E-1;6,640529633E-2
5,097345797E0;2,771039903E-1;-8,604919314E-1;-6,727123260E-2
5,195980769E0;2,433944046E-1;-9,002046585E-1;5,698490143E-2
5,294686155E0;2,749164999E-1;-8,347660899E-1;-6,418228149E-4
5,393373047E0;2,917170823E-1;-8,502891064E-1;1,827430725E-2
5,492036318E0;2,705546319E-1;-8,233308196E-1;4,679965973E-2
5,590716263E0;2,820702195E-1;-8,248891830E-1;8,269309998E-3
5,689375516E0;2,883023620E-1;-9,011968374E-1;4,148578644E-2
5,788087666E0;2,666845918E-1;-8,318474293E-1;3,172016144E-2
5,886744783E0;3,060192466E-1;-8,421995640E-1;-4,031753540E-2
5,985447321E0;2,808430493E-1;-8,103604317E-1;1,692962646E-2
6,084125913E0;3,021472991E-1;-8,492805958E-1;-2,452850342E-3
6,182770813E0;2,526340485E-1;-8,459492922E-1;3,565216064E-2
6,281485862E0;2,650897801E-1;-8,372878432E-1;4,501724243E-2
6,380128687E0;2,968931496E-1;-8,050596714E-1;3,526210785E-2
6,478821957E0;2,798080444E-1;-8,344852924E-1;-3,239631653E-3
6,577486825E0;2,498247027E-1;-8,345266581E-1;-8,234977722E-3
6,676164542E0;2,618904114E-1;-8,313565254E-1;-3,654098511E-2
6,774881922E0;2,697840631E-1;-8,180099726E-1;1,557350159E-3
6,873557176E0;2,767482400E-1;-8,233976960E-1;1,030540466E-2
6,972237477E0;2,711507976E-1;-7,962995768E-1;2,450847626E-2
7,070901521E0;2,589210272E-1;-8,108085394E-1;-1,340103149E-2
7,169562300E0;2,632832825E-1;-7,928500175E-1;9,771347046E-3
7,268275071E0;2,626352012E-1;-7,888215780E-1;1,439571381E-2
7,366953377E0;2,562658787E-1;-7,804329395E-1;1,005649567E-2
7,465633322E0;2,519407272E-1;-7,532100677E-1;9,338378906E-3
7,547845319E0;2,275779694E-1;-7,649712563E-1;2,838039398E-2
7,646511023E0;2,349474728E-1;-7,887179852E-1;-1,908969879E-2
7,745227537E0;2,235483676E-1;-7,843542099E-1;-1,928329468E-2
7,843903728E0;2,160387635E-1;-7,844132185E-1;-9,938240051E-3
7,942563764E0;2,567072511E-1;-7,521985769E-1;-3,942489624E-2
8,041262843E0;2,636390328E-1;-8,478994370E-1;4,709434509E-2
8,139908210E0;2,545057535E-1;-7,500393391E-1;4,163646698E-2
8,238620025E0;2,725982368E-1;-7,504579425E-1;-2,970027924E-2
8,386617965E0;2,597292066E-1;-7,691093683E-1;9,727478027E-5
8,452410620E0;2,536143959E-1;-7,610388994E-1;-5,137443542E-3
8,518211626E0;2,420814186E-1;-7,786907554E-1;-1,085090637E-2
8,618211626E0;2,448311597E-1;-7,663458586E-1;-3,763198853E-3
8,718211626E0;2,344636172E-1;-7,519892454E-1;9,078979492E-3
8,818211626E0;2,255109847E-1;-7,646172643E-1;1,606369019E-2
8,918211626E0;2,261999100E-1;-7,437050343E-1;3,370857239E-2
9,018211626E0;2,298015654E-1;-7,564442754E-1;2,432537079E-2
9,118211626E0;2,286195904E-1;-7,384132147E-1;3,109169006E-2
9,218211626E0;2,312463075E-1;-7,341655493E-1;-6,256103516E-4
9,318211626E0;2,415642291E-1;-7,342818975E-1;1,357841492E-2
9,418211626E0;2,364977747E-1;-7,163280249E-1;1,314163208E-2
9,518211626E0;2,298551649E-1;-7,245173454E-1;-2,632141113E-4
9,618211626E0;2,425829023E-1;-7,076715231E-1;5,461692810E-3
9,718211626E0;2,261566073E-1;-7,466205359E-1;-1,278495789E-2
9,818211626E0;2,279394865E-1;-7,267310023E-1;1,957511902E-2
9,918211626E0;2,415682822E-1;-7,440156937E-1;6,024360657E-3
1,001821163E1;2,232879549E-1;-7,218071818E-1;2,800941467E-3
1,011821163E1;2,166614234E-1;-7,208714485E-1;2,603149414E-2
1,021821163E1;2,132635117E-1;-7,241580486E-1;1,970100403E-2
1,031821163E1;2,237370610E-1;-7,505923510E-1;-1,318836212E-2
1,041821163E1;2,187277228E-1;-7,438766956E-1;-9,931564331E-3
1,051821163E1;2,269507200E-1;-7,374679446E-1;-2,583026886E-2
1,061821163E1;2,182888985E-1;-7,420092225E-1;-7,467269897E-4
1,071821163E1;2,122799456E-1;-7,345410585E-1;2,669811249E-2
1,081821163E1;2,086390853E-1;-7,317635417E-1;2,617168427E-2
1,091821163E1;2,232006639E-1;-7,345429063E-1;2,399635315E-2
1,101821163E1;2,202402055E-1;-7,857816815E-1;1,683807373E-2
1,111821163E1;2,100416124E-1;-7,294870615E-1;-1,100540161E-2
1,121821163E1;2,225935161E-1;-7,405095100E-1;-3,114318848E-2
1,131821163E1;2,131161690E-1;-7,339668274E-1;9,937286377E-4
1,141821163E1;2,095692903E-1;-7,125670910E-1;1,512241364E-2
1,151821163E1;2,111539096E-1;-7,177080512E-1;6,854057312E-3
1,161821163E1;2,076066285E-1;-7,050212026E-1;2,808380127E-2
1,171821163E1;2,018730640E-1;-7,037053108E-1;3,894519806E-2
1,181821163E1;2,022117823E-1;-6,995463371E-1;1,762199402E-2
1,191821163E1;1,894997209E-1;-7,016041279E-1;1,572132111E-2
1,201821163E1;1,910298616E-1;-6,914710999E-1;-5,486488342E-3
1,211821163E1;1,988956481E-1;-6,959980726E-1;-1,731300354E-2
1,221821163E1;1,953965575E-1;-6,913475990E-1;-1,016712189E-2
1,231821163E1;1,966553777E-1;-6,925057173E-1;5,163192749E-3
1,241821163E1;1,951067150E-1;-7,186927199E-1;1,270675659E-2
1,251821163E1;1,952874362E-1;-7,217144966E-1;2,090644836E-2
1,261821163E1;1,927502751E-1;-6,953141689E-1;2,031803131E-2
1,271821163E1;1,987999678E-1;-7,194179296E-1;3,230094910E-3
1,281821163E1;1,850745380E-1;-7,085344791E-1;2,433872223E-2
1,291821163E1;1,990067363E-1;-6,797140837E-1;-3,877067566E-2
1,301821163E1;2,066795528E-1;-6,892802715E-1;-3,329944611E-2
1,311821163E1;1,991176307E-1;-6,921577454E-1;-1,959800720E-3
1,321821163E1;2,088569701E-1;-7,000141740E-1;8,985519409E-3
1,331821163E1;1,971944869E-1;-7,233695984E-1;3,424072266E-2
1,341821163E1;1,905883253E-1;-7,668349743E-1;1,100635529E-2
1,351821163E1;1,882325262E-1;-7,368418574E-1;-6,832122803E-3
1,361821163E1;1,902017146E-1;-7,252407074E-1;-1,103878021E-2
1,371821163E1;1,914305538E-1;-7,034916878E-1;7,589340210E-3
1,381821163E1;2,054684460E-1;-7,006664276E-1;1,996040344E-3
1,391821163E1;2,057943195E-1;-6,877702475E-1;4,808425903E-3
1,401821163E1;2,060840130E-1;-6,911876202E-1;-1,401519775E-2
1,411821163E1;2,007820904E-1;-6,833629608E-1;-1,675415039E-2
1,421821163E1;1,958894432E-1;-6,845599413E-1;-1,099777222E-2
1,431821163E1;1,891457736E-1;-6,782474518E-1;1,196861267E-2
1,441821163E1;1,805652231E-1;-6,674813628E-1;2,942085266E-3
1,451821163E1;1,711790562E-1;-6,679656506E-1;1,714229584E-2
1,461821163E1;1,677919626E-1;-6,715005636E-1;9,372711182E-3
1,471821163E1;1,514241695E-1;-6,558660865E-1;9,768486023E-3
1,481821163E1;1,560965180E-1;-6,615340710E-1;8,912086487E-3
1,491821163E1;1,343126595E-1;-6,500751376E-1;1,225280762E-2
1,501821163E1;1,380975842E-1;-6,478344202E-1;1,620769501E-2
1,511821163E1;1,405669451E-1;-6,354290247E-1;2,854156494E-2
1,521821163E1;1,469979733E-1;-6,287600994E-1;2,167987823E-2
1,531821163E1;1,563674212E-1;-6,256226301E-1;1,315212250E-2
1,541821163E1;1,633104980E-1;-6,283433437E-1;-1,715660095E-2
1,551821163E1;1,803199500E-1;-6,236547232E-1;-1,509571075E-2
1,561821163E1;1,791337281E-1;-6,237497330E-1;-1,575183868E-2
1,571821163E1;1,979045868E-1;-6,251639128E-1;-3,648757935E-3
1,581821163E1;2,016819417E-1;-6,103655100E-1;-9,155273438E-4
1,591821163E1;2,128399014E-1;-6,354808211E-1;-5,623817444E-3
1,601821163E1;2,118184865E-1;-6,617755890E-1;-1,890850067E-2
1,611821163E1;2,086583674E-1;-6,890061498E-1;-1,483726501E-2
1,621821163E1;1,933719814E-1;-6,794787645E-1;-2,027702332E-2
1,631821163E1;1,966655105E-1;-6,723732352E-1;-2,863979340E-2
1,641821163E1;1,718841493E-1;-6,454227567E-1;-4,399299622E-3
1,651821163E1;1,798744500E-1;-6,411166191E-1;1,153945923E-4
1,661821163E1;1,533089876E-1;-6,575980186E-1;2,101516724E-2
1,671821163E1;1,597164869E-1;-6,847601533E-1;-1,862430573E-2
1,681821163E1;1,418357790E-1;-6,667855978E-1;9,347915649E-3
1,691821163E1;1,376698464E-1;-6,712017059E-1;-3,750801086E-3
1,701821163E1;1,243050098E-1;-6,705686450E-1;-1,184463501E-3
1,711821163E1;1,380337775E-1;-6,636376977E-1;-8,692741394E-3
1,721821163E1;1,381460130E-1;-6,668403745E-1;2,279853821E-2
1,731821163E1;1,510647088E-1;-6,448748112E-1;4,158306122E-2
1,741821163E1;1,626442820E-1;-6,343485117E-1;2,174282074E-2
1,751821163E1;1,617626995E-1;-6,496706605E-1;-1,049995422E-2
1,761821163E1;1,701157838E-1;-6,460134983E-1;-3,669261932E-2
1,771821163E1;1,761994660E-1;-6,525270939E-1;-3,271579742E-2
1,781821163E1;1,819555610E-1;-6,264327168E-1;-1,695537567E-2
1,791821163E1;1,838531792E-1;-6,139932275E-1;3,076553345E-3
1,801821163E1;1,698481143E-1;-6,031693220E-1;1,452922821E-2
1,811821163E1;1,708290577E-1;-6,066301465E-1;-4,439353943E-3
1,821821163E1;1,541910619E-1;-5,981042981E-1;-1,498508453E-2
1,831821163E1;1,394816339E-1;-6,009935141E-1;-3,130912781E-3
1,841821163E1;1,178069413E-1;-5,958368778E-1;3,015899658E-2
1,851821163E1;1,073052883E-1;-5,936221480E-1;3,721809387E-2
1,861821163E1;1,018385962E-1;-5,929383636E-1;2,963352203E-2
1,871821163E1;1,116465777E-1;-5,781462193E-1;-3,767013550E-4
1,881821163E1;1,215395704E-1;-5,875297785E-1;-1,822757721E-2
1,891821163E1;1,467434168E-1;-6,059149504E-1;-5,040264130E-2
1,901821163E1;1,596905887E-1;-5,829133987E-1;-5,519676208E-2
1,911821163E1;1,836010516E-1;-5,624368787E-1;-4,523658752E-2
1,921821163E1;2,004864812E-1;-5,659623742E-1;-5,609035492E-2
1,931821163E1;2,150444984E-1;-5,404834151E-1;5,193901062E-2
1,941821163E1;2,278775275E-1;-5,231242180E-1;4,686450958E-2
1,951821163E1;2,232691050E-1;-5,471196175E-1;6,087303162E-3
1,961821163E1;2,194746137E-1;-5,499804616E-1;-2,396392822E-2
1,971821163E1;2,012948543E-1;-5,342835784E-1;-6,472587585E-3
1,981821163E1;1,945132613E-1;-5,437482595E-1;-2,825355530E-2
1,991821163E1;1,388846785E-1;-5,424938798E-1;-2,929306030E-2
2,001821163E1;1,374346167E-1;-5,276450515E-1;-6,098747253E-2
2,011821163E1;9,343346953E-2;-5,271021128E-1;-2,222156525E-2
2,021821163E1;8,416009694E-2;-5,274711847E-1;1,756668091E-3
2,031821163E1;7,995258272E-2;-5,213354230E-1;4,221057892E-2
2,041821163E1;6,530629843E-2;-5,181659460E-1;6,808185577E-2
2,051821163E1;7,285793126E-2;-5,016642809E-1;9,409809113E-2
2,061821163E1;7,759867609E-2;-4,941961169E-1;9,339332581E-2
2,071821163E1;7,803849876E-2;-4,861117601E-1;3,819370270E-2
2,081821163E1;9,195493907E-2;-4,894727170E-1;1,597881317E-2
2,091821163E1;1,152434647E-1;-4,823717475E-1;-2,596759796E-2
2,101821163E1;1,415113509E-1;-4,903562665E-1;-1,950168610E-2
2,111821163E1;1,543198228E-1;-4,801411629E-1;-3,332138062E-2
2,121821163E1;1,645395458E-1;-4,925256670E-1;-1,544857025E-2
2,131821163E1;1,827909648E-1;-4,849303365E-1;-1,150035858E-2
2,141821163E1;1,943082958E-1;-4,785031080E-1;-2,001571655E-2
2,151821163E1;2,003745735E-1;-4,689300060E-1;-9,704589844E-3
2,161821163E1;2,094896734E-1;-4,713273644E-1;-2,282238007E-2
2,171821163E1;2,131246328E-1;-4,629690349E-1;-3,758144379E-2
2,181821163E1;2,038286030E-1;-4,553018212E-1;-4,170227051E-2
2,191821163E1;1,917962730E-1;-4,623776078E-1;-1,403141022E-2
2,201821163E1;1,581218988E-1;-4,618246555E-1;1,260566711E-2
2,211821163E1;1,533341259E-1;-4,578869939E-1;-5,115509033E-3
2,221821163E1;1,449260861E-1;-4,549372494E-1;-7,540702820E-3
2,231821163E1;1,245281398E-1;-4,368265271E-1;2,328968048E-2
2,241821163E1;1,073046625E-1;-4,173055291E-1;1,471710205E-2
2,251821163E1;9,710890055E-2;-4,175286591E-1;-2,123832703E-2
2,261821163E1;7,023601979E-2;-4,351004958E-1;-6,703376770E-3
2,271821163E1;6,503634155E-2;-4,235504270E-1;1,518630981E-2
2,281821163E1;7,178217918E-2;-4,458497763E-1;-2,550315857E-2
2,291821163E1;6,377484649E-2;-4,373963475E-1;-1,912403107E-2
2,301821163E1;7,979048043E-2;-4,421348870E-1;2,144145966E-2
2,311821163E1;9,188716114E-2;-4,264359474E-1;3,668022156E-2
2,321821163E1;1,398359835E-1;-4,009790421E-1;5,304527283E-2
2,331821163E1;1,524259299E-1;-3,943952322E-1;3,175163269E-2
2,341821163E1;1,630095840E-1;-3,949474394E-1;1,364707947E-3
2,351821163E1;1,750172079E-1;-4,091390669E-1;-6,306266785E-2
2,361821163E1;1,845800281E-1;-4,219142497E-1;-8,328628540E-2
2,371821163E1;1,903219372E-1;-4,050784707E-1;-4,685020447E-2
2,381821163E1;1,814599633E-1;-4,040725827E-1;-8,742332458E-3
2,391821163E1;1,776171327E-1;-3,991317153E-1;5,401802063E-2
2,401821163E1;1,660473943E-1;-3,732219934E-1;4,417514801E-2
2,411821163E1;1,402608156E-1;-3,641035259E-1;1,988887787E-2
2,421821163E1;1,205381602E-1;-3,770096004E-1;4,072189331E-3
2,431821163E1;9,227114916E-2;-3,511624932E-1;-2,971458435E-2
2,441821163E1;1,027620509E-1;-3,671118915E-1;-3,154945374E-2
2,451821163E1;9,297443926E-2;-3,830648661E-1;-3,600788116E-2
2,461821163E1;1,135448962E-1;-3,779446185E-1;-3,080177307E-2
2,471821163E1;9,571433812E-2;-3,743408322E-1;2,460956573E-2
2,481821163E1;1,082066521E-1;-3,913893104E-1;7,066249847E-2
2,491821163E1;1,301739961E-1;-3,393138647E-1;9,086322784E-2
2,501821163E1;1,412888914E-1;-3,385857344E-1;4,674053192E-2
2,511821163E1;1,291736960E-1;-3,306301534E-1;-1,565265656E-2
2,521821163E1;1,082115322E-1;-3,340207338E-1;-9,409904480E-2
2,531821163E1;1,000947878E-1;-3,722473979E-1;-1,853342056E-1
2,541821163E1;7,743906230E-2;-3,504265845E-1;-7,081699371E-2
2,551821163E1;8,782295138E-2;-3,456619382E-1;6,670665741E-2
2,561821163E1;8,608855307E-2;-3,430539370E-1;1,320209503E-1
2,571821163E1;1,061393842E-1;-3,098482490E-1;2,374839783E-1
2,581821163E1;9,975822270E-2;-3,218256533E-1;1,589078903E-1
2,591821163E1;8,520004898E-2;-3,356775343E-1;-7,850837708E-2
2,601821163E1;6,220825389E-2;-3,463989496E-1;-2,492189407E-1
2,611821163E1;7,447453588E-2;-3,437959254E-1;-2,236318588E-1
2,621821163E1;7,692328840E-2;-3,103507757E-1;-8,945560455E-2
2,631821163E1;6,250624359E-2;-3,112663627E-1;-1,370525360E-2
2,641821163E1;4,927799106E-2;-3,164416254E-1;7,596302032E-2
2,651821163E1;6,597504020E-2;-3,177149594E-1;5,736732483E-2
2,661821163E1;6,990387291E-2;-2,639760077E-1;2,064285278E-1
2,671821163E1;1,036647856E-1;-2,830524147E-1;1,501741409E-1
2,681821163E1;1,647472382E-1;-2,175031006E-1;1,797714233E-1
2,691821163E1;1,610928923E-1;-2,787548304E-1;9,102344513E-2
2,701821163E1;1,954653412E-1;-3,111608326E-1;-1,894950867E-2
2,711821163E1;1,558945328E-1;-2,877123654E-1;-1,228656769E-1
2,721821163E1;1,283171475E-1;-2,820785344E-1;-9,413146973E-2
2,731821163E1;9,038002789E-2;-2,953384817E-1;-4,650688171E-2
2,741821163E1;5,030584335E-2;-2,892068624E-1;-4,761409760E-2
2,751821163E1;-1,195026468E-2;-2,880159318E-1;2,176284790E-3
2,761821163E1;-3,986199573E-2;-3,073295653E-1;6,439399719E-2
2,771821163E1;-5,151097104E-2;-2,794678509E-1;1,122570038E-1
2,781821163E1;-4,198632017E-2;-2,293678522E-1;1,131563187E-1
2,791821163E1;-4,137371480E-2;-2,192685008E-1;2,071762085E-2
2,801821163E1;-8,033456653E-2;-2,695822418E-1;-2,201814651E-1
2,811821163E1;-7,585437596E-2;-2,700074911E-1;-2,873020172E-1
2,821821163E1;-1,534037441E-1;-1,990304291E-1;-1,554126740E-1
2,831821163E1;-1,693594903E-1;-2,670370936E-1;-4,846572876E-3
2,841821163E1;-1,816304922E-1;-2,367160618E-1;3,644533157E-1
2,851821163E1;-1,156341061E-1;-2,638626695E-1;4,018316269E-1
2,861821163E1;-5,781325698E-2;-2,560802996E-1;2,831144333E-1
2,871821163E1;1,203195527E-1;-3,072200418E-1;-2,117166519E-1
2,881821163E1;2,346673161E-1;-2,539235950E-1;-2,377386093E-1
2,891821163E1;1,830546409E-1;-1,972292364E-1;-2,046480179E-1
2,901821163E1;1,726683229E-1;-2,281230688E-1;-2,596902847E-1
2,911821163E1;3,881633282E-2;-1,574596167E-1;-1,805305481E-3
2,921821163E1;-4,000149667E-2;-2,166274786E-1;-2,807521820E-2
2,931821163E1;-2,112962306E-2;-2,339915335E-1;-1,520824432E-2
2,941821163E1;-1,024127007E-3;-2,137038708E-1;1,590251923E-2
2,951821163E1;2,826634049E-2;-1,684131026E-1;1,465682983E-1
2,961821163E1;3,803384304E-2;-1,612171829E-1;1,435031891E-1
2,971821163E1;-2,823039889E-2;-1,436150670E-1;-1,619720459E-2
2,981821163E1;-5,822054297E-2;-1,435609162E-1;-1,183815002E-1
2,991821163E1;-1,321411431E-1;-1,991697252E-1;-2,071056366E-1
3,001821163E1;-1,819599569E-1;-1,963939071E-1;-1,413583755E-1
3,011821163E1;-1,337989271E-1;-1,790442169E-1;1,784305573E-1
3,021821163E1;-1,339768767E-1;-1,549990773E-1;3,547363281E-1
3,031821163E1;-2,920041978E-2;-1,150550842E-1;4,447393417E-1
3,041821163E1;2,258899808E-2;-1,056141853E-1;2,871780396E-1
3,051821163E1;3,564614058E-2;-1,927903891E-1;-1,971530914E-1
3,061821163E1;9,711377323E-2;-2,264840305E-1;-3,824806213E-1
3,071821163E1;6,333038211E-3;-1,892414391E-1;-4,217052460E-1
3,081821163E1;6,723225117E-2;-1,862008274E-1;-2,676277161E-1
3,091821163E1;-4,533803463E-2;-1,027719378E-1;1,683454514E-1
3,101821163E1;-9,833082557E-2;-9,488272667E-2;3,686637878E-1
3,111821163E1;-1,355694532E-1;-1,275288463E-1;3,080005646E-1
3,121821163E1;-1,243667156E-1;-1,795466840E-1;-1,366615295E-3
3,131821163E1;-7,445952296E-2;-1,784251332E-1;-1,542921066E-1
3,141821163E1;4,715442657E-3;-1,707054377E-1;-2,967824936E-1
3,151821163E1;4,064604640E-2;-1,038170159E-1;-2,533941269E-1
3,161821163E1;7,377409935E-2;-1,081537306E-1;-8,900451660E-2
3,171821163E1;8,316451311E-2;-1,230138242E-1;6,803989410E-2
3,181821163E1;1,134584695E-1;-1,557956934E-1;2,957029343E-1
3,191821163E1;1,120284200E-1;-1,570301056E-1;3,296966553E-1
3,201821163E1;1,070403308E-1;-1,424241066E-1;1,427698135E-1
3,211821163E1;9,807430208E-2;-1,237040162E-1;-6,562423706E-2
3,221821163E1;6,979236007E-2;-1,210547388E-1;-3,211803436E-1
3,231821163E1;5,798879266E-2;-1,110579073E-1;-4,016008377E-1
3,241821163E1;1,917454600E-2;-1,106298268E-1;-1,575450897E-1
3,251821163E1;4,805743694E-3;-1,310000420E-1;-8,926105499E-2
3,261821163E1;-5,406349897E-3;-1,397085190E-1;9,492301941E-2
3,271821163E1;-1,123589650E-2;-1,253994703E-1;1,417684555E-1
3,281821163E1;-4,226786643E-2;-7,939150929E-2;2,392997742E-1
3,291821163E1;-5,813638866E-2;-2,349373698E-2;2,913599014E-1
3,301821163E1;-1,003731489E-1;-6,147953868E-2;2,085056305E-1
3,311821163E1;-9,730947018E-2;-8,329126239E-2;7,912635803E-2
3,321821163E1;-3,074466437E-2;-1,236273050E-1;-1,783981323E-1
3,331821163E1;1,617711782E-2;-1,573902965E-1;-2,881460190E-1
3,341821163E1;9,875529259E-2;-1,756383181E-1;-2,681007385E-1
3,351821163E1;1,814868301E-1;-1,230657399E-1;-1,376342773E-1
3,361821163E1;2,371080369E-1;-7,119545341E-2;4,863929749E-2
3,371821163E1;2,683116496E-1;-1,414945722E-2;3,384857178E-1
3,381821163E1;2,628272176E-1;-1,560890675E-2;4,076356888E-1
3,391821163E1;1,610345095E-1;-9,844425321E-2;1,726818085E-1
3,401821163E1;1,319141090E-1;-1,259768009E-1;-7,767486572E-2
3,411821163E1;1,076382548E-1;-1,316492856E-1;-4,049625397E-1
3,421821163E1;1,278920323E-1;-1,224899292E-1;-4,265251160E-1
3,431821163E1;1,335618645E-1;-5,278518796E-2;-1,271934509E-1
3,441821163E1;1,044491976E-1;-7,250708342E-2;1,069202423E-1
3,451821163E1;6,031390280E-2;-7,427221537E-2;3,524398804E-1
3,461821163E1;4,111613333E-2;-7,494407892E-2;3,940105438E-1
3,471821163E1;7,673554122E-3;-5,501741171E-2;2,346429825E-1
3,481821163E1;1,783611625E-2;-3,343185782E-2;9,666347504E-2
3,491821163E1;7,706493139E-2;-3,839829564E-2;-1,397037506E-1
3,501821163E1;1,430740058E-1;-5,899262428E-2;-2,212438583E-1
3,511821163E1;2,253268957E-1;-1,080939174E-1;-1,547794342E-1
3,521821163E1;2,672813535E-1;-1,226366460E-1;-7,729053497E-2
3,531821163E1;2,645065486E-1;-1,341648400E-1;1,811866760E-1
3,541821163E1;2,484094352E-1;-9,606534243E-2;2,272024155E-1
3,551821163E1;1,647343934E-1;-2,075117826E-2;1,480989456E-1
3,561821163E1;1,184509918E-1;-3,037658334E-2;9,982585907E-2
3,571821163E1;1,227105036E-1;-7,042431831E-2;-2,582426071E-1
3,581821163E1;1,767031252E-1;-9,873673320E-2;-3,505916595E-1
3,591821163E1;2,090107650E-1;-9,543675184E-2;-3,932094574E-1
3,601821163E1;1,552677006E-1;-5,903124809E-3;2,419757843E-1
3,611821163E1;7,384599745E-2;-1,281106472E-2;3,904237747E-1
3,621821163E1;1,416507065E-1;-5,362066627E-2;5,247383118E-1
3,631821163E1;1,608320624E-1;-5,190393329E-2;4,708862305E-1
3,641821163E1;1,583158970E-1;-1,047146916E-1;-6,245136261E-2
3,651821163E1;1,244112924E-1;-9,820020199E-2;-2,185029984E-1
3,661821163E1;1,243787110E-1;-9,441637993E-2;-4,758930206E-1
3,671821163E1;1,284814179E-1;-7,760709524E-2;-4,311408997E-1
3,681821163E1;1,516277492E-1;-5,157285929E-2;-2,395915985E-1
3,691821163E1;1,349773109E-1;-4,636794329E-3;6,876945496E-3
3,701821163E1;1,009494662E-1;-5,366712809E-3;2,034568787E-1
3,711821163E1;1,001534462E-1;-6,218492985E-3;2,808141708E-1
3,721821163E1;1,287587583E-1;-5,348637700E-2;2,444963455E-1
3,731821163E1;1,344970167E-1;-7,239738107E-2;8,167648315E-2
3,741821163E1;1,640872806E-1;-1,193196774E-1;-1,865873337E-1
3,751821163E1;1,491136104E-1;-1,621548533E-1;-3,654298782E-1
3,761821163E1;9,601958096E-2;-1,005268395E-1;-1,540641785E-1
3,771821163E1;6,536448002E-2;-4,834315181E-2;-6,704807281E-2
3,781821163E1;4,055750370E-2;2,035167813E-2;2,110958099E-1
3,791821163E1;4,107730091E-2;4,018849134E-2;2,273702621E-1
3,801821163E1;1,460144669E-1;-3,728160262E-2;1,716012955E-1
3,811821163E1;1,394090801E-1;-2,309852839E-2;6,668758392E-2
3,821821163E1;1,997354925E-1;-4,413118958E-2;-2,316160202E-1
3,831821163E1;2,115374207E-1;-8,866497874E-2;-3,570804596E-1
3,841821163E1;1,504019499E-1;-9,732869267E-2;-2,387495041E-1
3,851821163E1;1,266428232E-1;-7,601186633E-2;4,861640930E-2
3,861821163E1;1,614871025E-1;-3,955125809E-2;1,121072769E-1
3,871821163E1;2,367053330E-1;9,564667940E-3;2,353334427E-1
3,881821163E1;2,667417526E-1;-1,419293880E-2;1,367559433E-1
3,891821163E1;2,856987417E-1;-5,408602953E-2;-1,916494370E-1
3,901821163E1;2,775907815E-1;-7,787606120E-2;-2,392368317E-1
3,911821163E1;3,103543520E-1;-8,874800801E-2;-2,436189651E-1
3,921821163E1;2,911113501E-1;-3,194880486E-2;-3,892803192E-2
3,931821163E1;3,027252853E-1;2,662122250E-2;2,292747498E-1
3,941821163E1;3,069157004E-1;5,483117700E-2;3,858222961E-1
3,951821163E1;2,652319968E-1;2,383053303E-3;1,001167297E-1
3,961821163E1;2,924351692E-1;-4,002338648E-2;-3,182888031E-2
3,971821163E1;3,871935308E-1;-7,352161407E-2;-2,411031723E-1
3,981821163E1;3,854594827E-1;-7,284966111E-2;-2,815580368E-1
3,991821163E1;5,375669003E-1;-1,645416021E-2;-1,754264832E-1
4,001821163E1;6,396945119E-1;-6,101432443E-2;-1,041688919E-1
4,011821163E1;6,225017905E-1;7,515013218E-3;3,065109253E-2
4,021821163E1;5,453484058E-1;3,424283862E-2;-1,722717285E-2
4,031821163E1;4,870416522E-1;4,242986441E-3;4,275321960E-3
4,041821163E1;4,138367176E-1;-1,940920949E-2;3,044605255E-2
4,051821163E1;2,655510008E-1;-1,334475577E-1;-1,616668701E-2
4,061821163E1;2,268701196E-1;-1,089947820E-1;-1,569080353E-2
4,071821163E1;1,891807765E-1;-3,846818209E-2;1,952247620E-1
4,081821163E1;2,768172026E-1;-4,849541187E-2;1,922874451E-1
4,091821163E1;3,467307389E-1;1,192885637E-2;1,683330536E-1
4,101821163E1;4,226013124E-1;1,615542173E-2;-3,777790070E-2
4,111821163E1;4,382603467E-1;-1,839113235E-2;-1,436977386E-1
4,121821163E1;4,817365706E-1;-9,642562270E-2;-1,612129211E-1
4,131821163E1;4,365758896E-1;-8,100044727E-2;-1,843767166E-1
4,141821163E1;5,073061585E-1;-4,359608889E-2;-2,138538361E-1
4,151821163E1;5,803761482E-1;-7,058057189E-2;-8,198833466E-2
4,161821163E1;7,734606266E-1;7,946041226E-2;3,728561401E-1
4,171821163E1;6,477552056E-1;4,588964581E-2;3,224391937E-1
4,181821163E1;4,874857068E-1;-1,318249106E-2;1,858997345E-2
4,191821163E1;3,987965584E-1;-1,085740030E-1;-1,625490189E-1
4,201821163E1;2,520539761E-1;-1,466452777E-1;-2,649564743E-1
4,211821163E1;2,073212564E-1;-1,069642305E-1;-2,791337967E-1
4,221821163E1;1,836559474E-1;-6,392142177E-2;-2,019338608E-1
4,231821163E1;1,521862298E-1;-1,945140958E-2;2,331733704E-2
4,241821163E1;8,140622638E-3;9,971827269E-3;4,005565643E-1
4,251821163E1;-7,447597384E-2;3,446409106E-2;4,698219299E-1
4,261821163E1;-7,309266925E-2;-2,211996913E-2;1,266717911E-1
4,271821163E1;-1,019051969E-1;-7,931447029E-2;-4,928970337E-2
4,281821163E1;-1,783926189E-1;-1,214736700E-1;-9,315967560E-2
4,291821163E1;-1,586609781E-1;-1,203384101E-1;-6,130599976E-2
4,301821163E1;-8,894480765E-2;-7,330814004E-2;1,254358292E-1
4,311821163E1;-3,476288170E-2;4,248559475E-2;1,768684387E-1
4,321821163E1;1,651115268E-1;3,630346060E-2;1,103858948E-1
4,331821163E1;2,307523042E-1;1,340731978E-2;6,587028503E-3
4,341821163E1;3,330170512E-1;-9,849154949E-2;-2,697629929E-1
4,351821163E1;2,750237882E-1;-1,503421366E-1;-3,891172409E-1
4,361821163E1;2,275904119E-1;-4,074725509E-2;-2,983856201E-1
4,371821163E1;6,159745902E-2;3,972446918E-2;2,153940201E-1
4,381821163E1;-5,666805804E-2;5,049070716E-2;4,051218033E-1
4,391821163E1;-1,265142858E-1;2,844798565E-2;2,219181061E-1
4,401821163E1;-1,010402441E-1;-8,618864417E-2;1,179027557E-2
4,411821163E1;-1,326856762E-2;-9,428736567E-2;-1,540822983E-1
4,421821163E1;2,120143920E-2;7,566213608E-4;-2,391939163E-1
4,431821163E1;-2,490679175E-2;1,093223691E-2;-1,443691254E-1
4,441821163E1;-5,726367980E-2;2,838280797E-2;1,979827881E-2
4,451821163E1;-1,488122195E-1;1,099067330E-1;3,137025833E-1
4,461821163E1;-1,208580360E-1;7,997664809E-2;3,604660034E-1
4,471821163E1;-1,807832718E-1;3,896573186E-2;1,136302948E-1
4,481821163E1;-1,024601236E-1;-6,677764654E-2;-9,078407288E-2
4,491821163E1;-3,848765045E-2;-1,828225255E-1;-2,247791290E-1
4,501821163E1;2,761647478E-2;-5,281418562E-2;-5,702209473E-2
4,511821163E1;3,235958219E-1;4,713252187E-2;3,027343750E-1
4,521821163E1;3,251027465E-1;6,524884701E-2;2,740802765E-1
4,531821163E1;2,917013764E-1;-1,859128475E-3;-2,088899612E-1
4,541821163E1;2,366545200E-1;-7,517334819E-2;-3,630590439E-1
4,551821163E1;4,548498988E-2;-6,609994173E-2;-2,395000458E-1
4,561821163E1;2,262227237E-3;1,324090362E-2;-8,297920227E-3
4,571821163E1;-5,589267984E-2;3,150504827E-2;2,266902924E-1
4,581821163E1;-5,694796890E-2;-8,389413357E-3;3,395071030E-1
4,591821163E1;-8,865787089E-2;3,990873694E-2;3,261213303E-1
4,601821163E1;-8,397855610E-2;4,140466452E-3;-2,174158096E-1
4,611821163E1;-6,296323240E-2;-3,189924359E-2;-2,381401062E-1
4,621821163E1;-2,872101218E-2;-2,460396290E-2;1,547956467E-1
4,631821163E1;-4,719831049E-2;5,639478564E-2;2,990884781E-1
4,641821163E1;-1,953534037E-2;5,177646875E-3;1,571607590E-1
4,651821163E1;7,288757712E-3;1,601985097E-2;5,948352814E-2
4,661821163E1;9,553410113E-3;-3,389656544E-2;-1,799221039E-1
4,671821163E1;-1,000785083E-2;-6,512016058E-2;-2,178201675E-1
4,681821163E1;1,368085667E-2;-7,671386003E-2;-1,039381027E-1
4,691821163E1;5,466035381E-2;-4,398760200E-2;1,373004913E-1
4,701821163E1;6,544483453E-2;1,337337792E-1;4,650106430E-1
4,711821163E1;5,301261693E-2;1,516037881E-1;3,547954559E-1
4,721821163E1;2,129403688E-2;7,850241661E-2;7,498264313E-2
4,731821163E1;3,303597122E-2;5,283841491E-2;1,451778412E-2
4,741821163E1;7,855408639E-2;-1,132962108E-1;-1,047554016E-1
4,751821163E1;5,718477443E-2;-9,642368555E-2;-9,683799744E-2
4,761821163E1;7,754459977E-2;-2,606707811E-2;-1,989593506E-1
4,771821163E1;9,818389267E-2;1,021043062E-1;-4,088687897E-2
4,781821163E1;9,955102205E-2;1,521205902E-1;1,918745041E-1
4,791821163E1;5,365200341E-2;2,066515684E-1;3,784208298E-1
4,801821163E1;-4,709753394E-2;9,474515915E-3;3,599319458E-1
4,811821163E1;-9,608905762E-3;-5,050730705E-2;3,713417053E-1
4,821821163E1;8,521113545E-3;-1,138775945E-1;-5,912780762E-4
4,831821163E1;3,549952060E-3;-7,382881641E-2;-1,239137650E-1
4,841821163E1;3,472577780E-3;1,407653093E-2;-1,859216690E-1
4,851821163E1;8,989132941E-3;6,092506647E-2;-6,906223297E-2
4,861821163E1;2,961194329E-2;8,335486054E-2;1,692485809E-2
4,871821163E1;7,439864427E-2;8,552631736E-2;-1,043319702E-3
4,881821163E1;1,116708592E-1;6,989222765E-2;1,807880402E-2
4,891821163E1;1,194416285E-1;3,563863039E-2;2,010707855E-1
4,901821163E1;8,963935077E-2;-3,823196888E-2;3,177471161E-1
4,911821163E1;1,667757705E-2;6,573379040E-3;3,318758011E-1
4,921821163E1;7,071694359E-3;2,167278528E-2;2,163619995E-1
4,931821163E1;-5,869207531E-2;7,380777597E-2;-6,319522858E-2
4,941821163E1;-3,407470509E-2;9,515780210E-2;-1,302518845E-1
4,951821163E1;-2,090803534E-2;1,200481653E-1;-2,083969116E-1
4,961821163E1;-1,074180752E-2;1,146113873E-1;-1,424541473E-1
4,971821163E1;2,026437595E-2;3,737199306E-2;5,464458466E-2
4,981821163E1;2,564954758E-2;-2,615988255E-3;1,003303528E-1
4,991821163E1;3,342052177E-2;-4,509961605E-2;8,047485352E-2
5,001821163E1;8,279059082E-3;2,768099308E-3;2,079868317E-1
5,011821163E1;3,435998783E-2;1,414907575E-1;5,219354630E-1
5,021821163E1;5,177042633E-2;1,780291200E-1;4,762811661E-1
5,031821163E1;3,591267765E-2;1,119326949E-1;-4,964256287E-2
5,041821163E1;4,247996211E-2;5,562525988E-2;-2,371425629E-1
5,051821163E1;2,379246056E-3;3,704565763E-2;-3,278360367E-1
5,061821163E1;1,007868163E-2;-1,127958298E-3;-3,199863434E-1
5,071821163E1;6,733659655E-3;6,873750687E-2;2,130880356E-1
5,081821163E1;8,981064893E-3;1,575062275E-1;4,534139633E-1
5,091821163E1;5,722872540E-2;2,300284803E-1;6,090831757E-1
5,101821163E1;7,703748066E-3;9,017419815E-2;1,325769424E-1
5,111821163E1;-2,017972805E-2;2,003538609E-2;-6,849765778E-2
5,121821163E1;2,727711201E-2;-5,227875710E-2;-3,111352921E-1
5,131821163E1;2,465619892E-2;-6,366789341E-3;-2,499322891E-1
5,141821163E1;2,824978530E-2;1,389633417E-1;4,310035706E-2
5,151821163E1;2,970889956E-2;1,957503259E-1;2,370548248E-1
5,161821163E1;-2,522001043E-3;1,544716954E-1;3,362665176E-1
5,171821163E1;-3,887373954E-2;1,987195611E-1;3,337154388E-1
5,181821163E1;-2,465800196E-2;3,954458237E-2;1,677360535E-1
5,191821163E1;2,007180825E-3;1,727646589E-2;1,501750946E-2
5,201821163E1;3,287600353E-2;2,960592508E-2;-1,464796066E-1
5,211821163E1;6,452008337E-2;9,327286482E-2;-1,388387680E-1
5,221821163E1;5,940949917E-2;1,738324165E-1;4,801750183E-2
5,231821163E1;6,461732835E-2;2,196381688E-1;1,562500000E-1
5,241821163E1;2,285957336E-2;1,731047034E-1;1,555395126E-1
5,251821163E1;-2,463089302E-3;1,594753861E-1;1,125926971E-1
5,261821163E1;-5,240770057E-3;3,644400835E-2;3,497123718E-3
5,271821163E1;1,195990853E-2;3,594738245E-2;-2,008533478E-2
5,281821163E1;3,632900491E-2;5,812579393E-2;2,441692352E-2
5,291821163E1;5,018980056E-2;1,020796299E-1;3,317928314E-2
5,301821163E1;6,815039366E-2;2,007154226E-1;1,107501984E-2
5,311821163E1;7,968541235E-3;2,000781894E-1;4,591464996E-2
5,321821163E1;8,636336774E-3;1,417686939E-1;-2,619075775E-2
5,331821163E1;5,483629555E-2;4,591321945E-2;-1,988716125E-1
5,341821163E1;9,498646855E-2;5,161380768E-2;-9,106636047E-2
5,351821163E1;1,266482621E-1;1,322576404E-1;1,907110214E-1
5,361821163E1;5,562239140E-2;1,755722761E-1;5,777864456E-1
5,371821163E1;6,620344520E-2;2,280414104E-1;3,213644028E-1
5,381821163E1;1,183671504E-1;1,229678392E-1;-5,054473877E-3
5,391821163E1;1,483999491E-1;1,003972888E-1;-4,461097717E-1
5,401821163E1;1,547928005E-1;6,785148382E-2;-5,996465683E-1
5,411821163E1;1,575248241E-1;2,037250400E-1;2,837181091E-3
5,421821163E1;2,362497151E-1;1,699204445E-1;3,788805008E-1
5,431821163E1;2,674645782E-1;2,433607578E-1;4,204092026E-1
5,441821163E1;2,459958792E-1;1,182450652E-1;1,313114166E-2
5,451821163E1;4,166478515E-1;1,028913260E-1;-2,632417679E-1
5,461821163E1;4,229766130E-1;7,581508160E-2;-3,545713425E-1
5,471821163E1;4,707509279E-1;8,197438717E-2;-2,974185944E-1
5,481821163E1;3,981823027E-1;1,351218224E-1;-3,308553696E-1
5,491821163E1;3,406190276E-1;2,894460559E-1;4,720306396E-2
5,501821163E1;3,731146455E-1;2,593961358E-1;1,567420959E-1
5,511821163E1;3,806865513E-1;1,698454618E-1;1,045913696E-1
5,521821163E1;3,433150649E-1;4,794299603E-3;-7,749080658E-2
5,531821163E1;5,474172831E-1;4,390525818E-2;-6,046199799E-2
5,541821163E1;5,413739085E-1;9,192603827E-2;-1,598596573E-1
5,551821163E1;7,230336666E-1;2,999206483E-1;1,275882721E-1
5,561821163E1;6,290739775E-1;3,048615456E-1;1,080503464E-1
5,571821163E1;6,105588675E-1;2,658264637E-1;4,227066040E-2
5,581821163E1;5,673328638E-1;1,359859109E-1;-3,727140427E-1
5,591821163E1;6,288924217E-1;6,128555536E-2;-4,180650711E-1
5,601821163E1;6,887691021E-1;7,856714725E-2;-1,404991150E-1
5,611821163E1;6,648752689E-1;1,458433568E-1;3,653335571E-2
5,621821163E1;7,525508404E-1;2,895523012E-1;3,495197296E-1
5,631821163E1;7,299616337E-1;2,444701791E-1;3,834037781E-1
5,641821163E1;7,402275801E-1;1,643569767E-1;-1,756343842E-1
5,651821163E1;7,206773162E-1;1,139420867E-1;-2,877893448E-1
5,661821163E1;7,570049167E-1;8,516627550E-2;-2,838382721E-1
5,671821163E1;7,100081444E-1;1,586617827E-1;-2,401361465E-1
5,681821163E1;7,327157259E-1;2,167635858E-1;1,573276520E-1
5,691821163E1;7,034056187E-1;1,764286757E-1;3,308477402E-1
5,701821163E1;7,143464684E-1;1,141141057E-1;1,132373810E-1
5,711821163E1;7,553591728E-1;1,877535582E-1;-6,005287170E-2
5,721821163E1;8,771083951E-1;1,312788725E-1;-2,348222733E-1
5,731821163E1;7,809767723E-1;8,416095376E-2;-2,607851028E-1
5,741821163E1;7,977209687E-1;1,619007885E-1;-7,938575745E-2
5,751821163E1;7,723265290E-1;1,368127465E-1;9,515476227E-2
5,761821163E1;7,373187542E-1;2,165449560E-1;1,722993851E-1
5,771821163E1;6,872321367E-1;1,696773767E-1;-3,429698944E-2
5,781821163E1;6,761958003E-1;1,335404217E-1;-1,740169525E-2
5,791821163E1;7,835761309E-1;1,236120462E-1;7,326412201E-2
5,801821163E1;7,769509554E-1;1,828572452E-1;2,039842606E-1
5,811821163E1;8,368180394E-1;1,991644800E-1;1,479425430E-1
5,821821163E1;7,699879408E-1;1,051779985E-1;-2,908020020E-1
5,831821163E1;7,040365338E-1;7,901000977E-2;-4,737720490E-1
5,841821163E1;7,465370893E-1;8,597984910E-2;-3,236818314E-1
5,851821163E1;7,464397550E-1;1,117224693E-1;-6,644725800E-2
5,861821163E1;7,087887526E-1;1,307031810E-1;1,572799683E-2
5,871821163E1;7,269361019E-1;1,819893420E-1;1,508407593E-1
5,881821163E1;7,005628347E-1;1,650156081E-1;1,424760818E-1
5,891821163E1;6,108352542E-1;6,170794368E-2;2,363491058E-2
5,901821163E1;6,498532295E-1;4,275208712E-2;9,225845337E-3
5,911821163E1;6,284766197E-1;9,721857309E-2;-1,633920670E-1
5,921821163E1;7,146818042E-1;1,435862482E-1;-1,556749344E-1
5,931821163E1;7,829823494E-1;2,104718089E-1;-1,729602814E-1
5,941821163E1;8,167325854E-1;2,144115865E-1;1,014709473E-3
5,951821163E1;7,100200653E-1;1,282812059E-1;7,618808746E-2
5,961821163E1;6,680201888E-1;7,256662846E-2;-4,582881927E-2
5,971821163E1;7,151421309E-1;4,713368416E-2;-8,664131165E-3
5,981821163E1;6,306563616E-1;9,597161412E-2;-3,865242004E-3
5,991821163E1;7,418683767E-1;1,693695486E-1;5,483341217E-2
6,001821163E1;7,100360394E-1;1,658619940E-1;3,834629059E-2
6,011821163E1;7,040120363E-1;1,098773479E-1;-1,585912704E-1
6,021821163E1;6,823762655E-1;9,038767219E-2;-2,144718170E-1
6,031821163E1;6,265951395E-1;1,057976484E-1;-1,294145584E-1
6,041821163E1;6,187455058E-1;1,168638468E-1;1,037931442E-1
6,051821163E1;6,604931355E-1;1,319133043E-1;2,267675400E-1
6,061821163E1;6,787905693E-1;1,005080938E-1;1,639022827E-1
6,071821163E1;6,877992749E-1;6,717237830E-2;3,359222412E-2
6,081821163E1;7,062595487E-1;5,374094844E-2;-1,278924942E-1
6,091821163E1;6,233876348E-1;8,501988649E-2;-2,394590378E-1
6,101821163E1;6,532025933E-1;1,238775253E-1;-9,844970703E-2
6,111821163E1;6,189623475E-1;1,294621229E-1;-2,665138245E-2
6,121821163E1;6,335099936E-1;1,154634655E-1;7,432746887E-2
6,131821163E1;6,340079308E-1;6,522583961E-2;6,975746155E-2
6,141821163E1;6,432983279E-1;7,284739614E-2;8,628940582E-2
6,151821163E1;6,251047850E-1;8,758121729E-2;1,560096741E-1
6,161821163E1;5,988436937E-1;1,443533301E-1;6,976509094E-2
6,171821163E1;6,309243441E-1;1,556017101E-1;3,899097443E-2
6,181821163E1;6,436358094E-1;1,127675176E-1;2,175521851E-2
6,191821163E1;6,002010703E-1;7,836285233E-2;-1,027784348E-1
6,201821163E1;6,222580671E-1;4,463869333E-2;-5,483436584E-2
6,211821163E1;6,090163589E-1;9,188324213E-3;-4,617404938E-2
6,221821163E1;6,219745278E-1;1,087282002E-1;9,854698181E-2
6,231821163E1;6,016555429E-1;8,929818869E-2;1,719560623E-1
6,241821163E1;5,850642323E-1;1,288231015E-1;1,821260452E-1
6,251821163E1;5,112338066E-1;5,831608176E-2;-5,164146423E-3
6,261821163E1;6,551561356E-1;1,020736992E-1;3,910732269E-2
6,271821163E1;6,820069551E-1;4,550379515E-2;9,970855713E-2
6,281821163E1;6,668990254E-1;7,322186232E-2;2,602672577E-2
6,291821163E1;5,656955242E-1;5,772170424E-2;-8,258152008E-2
6,301821163E1;5,853133202E-1;9,159013629E-2;3,634929657E-2
6,311821163E1;5,596462488E-1;9,595784545E-2;5,660724640E-2
6,321821163E1;6,152591705E-1;6,848374009E-2;5,952644348E-2
6,331821163E1;5,732867122E-1;6,430554390E-2;1,114473343E-1
6,341821163E1;6,038821936E-1;7,601436973E-2;9,655761719E-2
6,351821163E1;7,508477569E-1;4,653561115E-2;1,534948349E-1
6,361821163E1;6,755591631E-1;1,260160804E-1;1,027173996E-1
6,371821163E1;5,780506134E-1;4,699322581E-2;1,628971100E-2
6,381821163E1;5,702304840E-1;3,448554873E-2;7,393360138E-2
6,391821163E1;4,315559864E-1;5,837053061E-3;-1,156673431E-1
6,401821163E1;6,021632552E-1;9,144991636E-2;-3,581714630E-2
6,411821163E1;5,518664122E-1;1,072842777E-1;-1,678466797E-4
6,421821163E1;6,188099980E-1;4,895305634E-2;1,011953354E-1
6,431821163E1;4,990305603E-1;2,841824293E-2;1,395740509E-1
6,441821163E1;5,829545259E-1;5,559682846E-2;1,633071899E-1
6,451821163E1;4,931634665E-1;2,589130402E-2;2,184295654E-2
6,461821163E1;6,506801844E-1;4,601597786E-2;1,498031616E-2
6,471821163E1;5,606018305E-1;9,686872363E-2;4,838371277E-2
6,481821163E1;6,259226203E-1;1,010859609E-1;8,930587769E-2
6,491821163E1;6,514611244E-1;2,586597204E-2;-1,170177460E-1
6,501821163E1;5,365021229E-1;9,850174189E-3;-2,209005356E-1
6,511821163E1;4,713469744E-1;4,542902112E-2;1,013851166E-1
6,521821163E1;5,005491376E-1;8,725818992E-2;3,216409683E-1
6,531821163E1;5,653436780E-1;1,217356324E-1;3,612260818E-1
6,541821163E1;5,131449699E-1;7,932183146E-2;2,836971283E-1
6,551821163E1;6,080788970E-1;9,892877936E-2;-1,467323303E-2
6,561821163E1;6,323304772E-1;8,544787765E-2;-1,376895905E-1
6,571821163E1;5,998368263E-1;1,923438907E-2;-2,913875580E-1
6,581821163E1;5,559371710E-1;1,512822509E-2;-1,523189545E-1
6,591821163E1;5,427816510E-1;3,365114331E-2;-9,184551239E-2
6,601821163E1;5,554988980E-1;6,270697713E-2;8,865261078E-2
6,611821163E1;6,255921125E-1;4,020419717E-2;1,791906357E-1
6,621821163E1;5,966440439E-1;1,581081748E-2;1,481342316E-1
6,631821163E1;5,718852878E-1;3,845357895E-2;1,123228073E-1
6,641821163E1;5,093723536E-1;4,165694118E-2;-8,164215088E-2
6,651821163E1;4,950571358E-1;5,335977674E-2;-1,930627823E-1
6,661821163E1;5,495258570E-1;4,845386744E-2;-2,663373947E-1
6,671821163E1;5,684131384E-1;7,729342580E-2;-1,550636292E-1
6,681821163E1;5,878977776E-1;7,076215744E-2;-3,244304657E-2
6,691821163E1;6,195331216E-1;8,102178574E-2;5,225276947E-2
6,701821163E1;5,567291975E-1;2,580827475E-2;7,538032532E-2
6,711821163E1;5,748057961E-1;3,544408083E-2;3,245258331E-2
6,721821163E1;5,410900712E-1;4,157394171E-2;-4,817581177E-2
6,731821163E1;4,814621210E-1;2,295529842E-2;-1,472291946E-1
6,741821163E1;5,300859809E-1;8,466199040E-2;-2,106065750E-1
6,751821163E1;5,412197113E-1;6,504100561E-2;-1,781206131E-1
6,761821163E1;5,278347135E-1;6,690663099E-2;-1,036682129E-1
6,771821163E1;5,240356922E-1;5,719161034E-2;-8,378124237E-2
6,781821163E1;5,793045759E-1;7,080051303E-2;9,803104401E-2
6,791821163E1;5,873407722E-1;4,140138626E-2;1,254425049E-1
6,801821163E1;6,561630964E-1;5,449783802E-2;8,561134338E-2
6,811821163E1;6,195875406E-1;8,471533656E-2;-5,097389221E-2
6,821821163E1;5,987796187E-1;8,348333836E-2;-2,028894424E-1
6,831821163E1;4,249624908E-1;8,651041985E-2;-2,745237350E-1
6,841821163E1;4,871307611E-1;2,591654658E-2;-2,400960922E-1
6,851821163E1;6,277237535E-1;3,789204359E-2;-3,814792633E-2
6,861821163E1;5,434373617E-1;7,623046637E-2;1,081476212E-1
6,871821163E1;5,932804346E-1;6,799349189E-2;1,229686737E-1
6,881821163E1;5,456593633E-1;2,597069740E-2;-5,236625671E-3
6,891821163E1;5,184216499E-1;4,075738788E-2;-5,897521973E-3
6,901821163E1;4,521602392E-1;7,670822740E-2;2,488422394E-2
6,911821163E1;4,833112955E-1;9,028077126E-3;-2,783231735E-1
6,921821163E1;4,092099071E-1;1,512703300E-2;-3,566074371E-1
6,931821163E1;6,162043810E-1;1,302744150E-1;-2,225685120E-2
6,941821163E1;5,952483416E-1;1,858499348E-1;1,274261475E-1
6,951821163E1;4,353066385E-1;3,808265924E-2;1,298933029E-1
6,961821163E1;4,499533176E-1;-1,836571097E-2;-7,448196411E-4
6,971821163E1;3,833674788E-1;-2,406141162E-2;-3,085727692E-1
6,981821163E1;5,572797656E-1;2,672642469E-3;-1,883831024E-1
6,991821163E1;4,305500984E-1;1,117686927E-1;1,987838745E-2
7,001821163E1;5,047948360E-1;1,358184218E-1;6,794357300E-2
7,011821163E1;3,599161804E-1;2,466027141E-1;7,534503937E-2
7,021821163E1;3,199068904E-1;1,777602732E-1;4,395675659E-2
7,031821163E1;1,634002328E-1;9,259879589E-2;-2,123928070E-2
7,041821163E1;1,844035089E-1;1,279628873E-1;-6,578731537E-2
7,051821163E1;2,492028177E-1;1,985674798E-1;-6,566810608E-2
7,061821163E1;2,630717456E-1;2,554023266E-1;-1,060705185E-1
7,071821163E1;1,680765152E-1;3,244526386E-1;-6,053829193E-2
7,081821163E1;4,464447498E-2;3,226896226E-1;7,939624786E-2
7,091821163E1;-2,169772983E-2;3,070552945E-1;5,974292755E-2
7,101821163E1;-4,619270563E-2;2,834235430E-1;8,919715881E-2
7,111821163E1;-8,738687634E-2;2,913605571E-1;1,313619614E-1
7,121821163E1;-1,014017463E-1;3,362897336E-1;1,179370880E-1
7,131821163E1;-6,762003899E-2;2,846876681E-1;2,557373047E-2
7,141821163E1;-2,150408924E-1;2,800200880E-1;-1,011800766E-1
7,151821163E1;-2,098368406E-1;2,761506438E-1;-1,450948715E-1
7,161821163E1;-2,187637538E-1;3,391680121E-1;-3,173828125E-3
7,171821163E1;-3,324723244E-1;2,736533880E-1;3,551101685E-2
7,181821163E1;-3,602125049E-1;2,675788999E-1;2,107534409E-1
7,191821163E1;-4,117935002E-1;2,614871562E-1;1,903810501E-1
7,201821163E1;-4,636207819E-1;2,073348016E-1;1,186790466E-1
7,211821163E1;-4,584385157E-1;2,300972342E-1;3,812980652E-2
7,221821163E1;-5,257661343E-1;2,725390494E-1;-1,070594788E-1
7,231821163E1;-5,252070427E-1;2,962859869E-1;-1,244850159E-1
7,241821163E1;-6,011063457E-1;3,068632185E-1;-5,399894714E-2
7,251821163E1;-7,413901091E-1;2,530461252E-1;-3,511333466E-2
7,261821163E1;-7,118234634E-1;2,687666714E-1;1,491680145E-1
7,271821163E1;-7,430002689E-1;2,719674408E-1;1,198062897E-1
7,281821163E1;-8,762594461E-1;2,387596667E-1;2,035150528E-1
7,291821163E1;-9,144028425E-1;2,431611121E-1;8,773136139E-2
7,301821163E1;-8,856881857E-1;2,450686544E-1;-6,021881104E-2
7,311821163E1;-8,966175914E-1;2,515326142E-1;-1,722431183E-2
7,321821163E1;-9,566138387E-1;3,057051003E-1;6,648349762E-2
7,331821163E1;-1,027541757E0;2,141065896E-1;1,186656952E-2
7,341821163E1;-1,106721878E0;2,192988992E-1;-5,355644226E-2
7,351821163E1;-1,152273178E0;1,826382875E-1;-9,004211426E-2
7,361821163E1;-1,117713571E0;1,940212995E-1;5,275249481E-2
7,371821163E1;-1,232369304E0;2,392801642E-1;1,551694870E-1
7,381821163E1;-1,244408727E0;2,764570713E-1;1,211700439E-1
7,391821163E1;-1,381535649E0;2,674716115E-1;3,842735291E-2
7,401821163E1;-1,341597438E0;2,291672081E-1;-5,809497833E-2
7,411821163E1;-1,344578505E0;1,633746326E-1;-2,641601562E-1
7,421821163E1;-1,258353591E0;1,614192128E-1;-1,677064896E-1
7,431821163E1;-1,384069443E0;2,503919601E-1;1,294307709E-1
7,441821163E1;-1,343316793E0;2,793209255E-1;2,304430008E-1
7,451821163E1;-1,569216728E0;1,856196225E-1;6,875610352E-2
7,461821163E1;-1,506378412E0;1,760634184E-1;6,122589111E-4
7,471821163E1;-1,572080135E0;1,812993139E-1;-1,742782593E-1
7,481821163E1;-1,520664215E0;2,114753127E-1;-1,172065735E-1
7,491821163E1;-1,507166147E0;2,232732028E-1;6,890201569E-2
7,501821163E1;-1,522344112E0;2,625035048E-1;1,172704697E-1
7,511821163E1;-1,454817295E0;2,155572176E-1;6,507873535E-3
7,521821163E1;-1,446505308E0;1,921519339E-1;4,433155060E-2
7,531821163E1;-1,486465335E0;1,918604076E-1;1,213073730E-3
7,541821163E1;-1,494570971E0;2,229912877E-1;5,845451355E-2
7,551821163E1;-1,533582926E0;2,036914676E-1;1,210689545E-2
7,561821163E1;-1,519360304E0;1,937232465E-1;1,918983459E-2
7,571821163E1;-1,506646872E0;1,695078909E-1;4,119586945E-2
7,581821163E1;-1,513917804E0;1,713908017E-1;7,195472717E-3
7,591821163E1;-1,369680643E0;1,587155759E-1;2,132415771E-3
7,601821163E1;-1,426492214E0;1,971670985E-1;-1,228189468E-1
7,611821163E1;-1,465734720E0;1,545949727E-1;1,776027679E-2
7,621821163E1;-1,560873985E0;2,460659146E-1;3,947391510E-1
7,631821163E1;-1,549548507E0;2,254604697E-1;3,363800049E-1
7,641821163E1;-1,452081323E0;1,361319721E-1;-1,708889008E-2
7,651821163E1;-1,494266033E0;6,755128503E-2;-1,076078415E-1
7,661821163E1;-1,477910876E0;1,471714675E-1;-1,706924438E-1
7,671821163E1;-1,456385851E0;1,493903995E-1;-1,606578827E-1
7,681821163E1;-1,462733030E0;1,773380786E-1;6,451797485E-2
7,691821163E1;-1,474544406E0;2,601114213E-1;7,231426239E-2
7,701821163E1;-1,488512158E0;1,349551827E-1;1,566553116E-1
7,711821163E1;-1,384825706E0;3,642944992E-2;1,901731491E-1
7,721821163E1;-1,313618541E0;6,304821372E-2;1,007051468E-1
7,731821163E1;-1,327789187E0;1,510737091E-1;1,900577545E-2
7,741821163E1;-1,357522249E0;1,668688208E-1;-4,267978668E-2
7,751821163E1;-1,314430356E0;2,029016018E-1;-1,180343628E-1
7,761821163E1;-1,312446952E0;1,538952589E-1;-1,678094864E-1
7,771821163E1;-1,350003362E0;1,441025436E-1;-8,541870117E-2
7,781821163E1;-1,333252549E0;6,575477123E-2;5,492401123E-2
7,791821163E1;-1,302660942E0;9,927665442E-2;1,141414642E-1
7,801821163E1;-1,315688372E0;1,355034113E-1;5,569458008E-3
7,811821163E1;-1,274540186E0;1,293202639E-1;-1,510248184E-1
7,821821163E1;-1,348680973E0;9,343775362E-2;-1,914625168E-1
7,831821163E1;-1,221956968E0;2,536624372E-1;6,281700134E-1
7,841821163E1;-1,283303499E0;2,402621508E-1;6,361227036E-1
7,851821163E1;-1,336081147E0;1,327255517E-1;2,256593704E-1
7,861821163E1;-1,520148039E0;2,431291342E-2;-1,488208771E-1
7,871821163E1;-1,383730054E0;3,351421654E-2;-3,980741501E-1
7,881821163E1;-1,331552267E0;5,442322791E-2;-3,654165268E-1
7,891821163E1;-1,242276788E0;2,734474242E-1;3,181171417E-2
7,901821163E1;-1,293236136E0;3,144085407E-1;1,356306076E-1
7,911821163E1;-1,220251918E0;1,473128498E-1;2,647209167E-1
7,921821163E1;-1,276790380E0;4,537373781E-3;3,616781235E-1
7,931821163E1;-1,197668552E0;-1,580436528E-2;1,200113297E-1
7,941821163E1;-1,219124317E0;6,482477486E-2;8,936882019E-2
7,951821163E1;-1,118285894E0;2,438295186E-1;-4,189109802E-2
7,961821163E1;-1,239625216E0;2,616237998E-1;6,158161163E-2
7,971821163E1;-1,233426213E0;1,871589720E-1;-6,486606598E-2
7,981821163E1;-1,301063061E0;1,001288593E-1;-1,594552994E-1
7,991821163E1;-1,222656727E0;4,583010077E-2;-1,237487793E-2
8,001821163E1;-1,208183646E0;8,761085570E-2;2,394466400E-1
8,011821163E1;-1,145892739E0;1,122848168E-1;2,137708664E-1
8,021821163E1;-1,153889894E0;2,085740268E-1;1,612367630E-1
8,031821163E1;-1,137896419E0;2,450224757E-1;-1,752662659E-2
8,041821163E1;-1,265482187E0;1,815338731E-1;-1,525297165E-1
8,051821163E1;-1,163825393E0;6,506972015E-2;1,868724823E-2
8,061821163E1;-1,214055657E0;6,477786601E-2;8,170127869E-2
8,071821163E1;-1,080154896E0;1,310628057E-1;1,998796463E-1
8,081821163E1;-1,178889036E0;1,688264012E-1;2,621097565E-1
8,091821163E1;-1,161329627E0;1,625498831E-1;1,771841049E-1
8,101821163E1;-1,214508295E0;1,936879754E-1;4,322338104E-2
8,111821163E1;-9,941201806E-1;1,902558059E-1;7,234191895E-2
8,121821163E1;-1,059870720E0;3,431676328E-2;-1,683750153E-1
8,131821163E1;-9,997920990E-1;1,150224060E-1;-1,145725250E-1
8,141821163E1;-1,022128940E0;8,303349465E-2;8,008861542E-2
8,151821163E1;-9,139702320E-1;1,415195912E-1;2,138967514E-1
8,161821163E1;-8,263708353E-1;1,966713667E-1;3,231134415E-1
8,171821163E1;-1,050892830E0;2,369119078E-1;4,004077911E-1
8,181821163E1;-8,425877690E-1;1,754156649E-1;2,557897568E-1
8,191821163E1;-8,761463165E-1;7,590615749E-2;-2,559757233E-2
8,201821163E1;-8,045800328E-1;5,608062446E-2;-1,921043396E-1
8,211821163E1;-8,028788567E-1;-5,988806486E-3;-2,528743744E-1
8,221821163E1;-8,456348777E-1;2,506356835E-1;1,837348938E-1
8,231821163E1;-8,018719554E-1;2,430781424E-1;3,341274261E-1
8,241821163E1;-8,979294300E-1;2,752361596E-1;2,890815735E-1
8,251821163E1;-5,572248697E-1;7,989484072E-2;2,408027649E-1
8,261821163E1;-5,770854950E-1;-5,767405033E-3;5,927658081E-2
8,271821163E1;-4,602122009E-1;8,409512043E-2;3,535556793E-2
8,281821163E1;-4,789081216E-1;1,642873287E-1;-2,598476410E-2
8,291821163E1;-4,660116136E-1;1,992799938E-1;-7,188606262E-2
8,301821163E1;-4,215771854E-1;2,057666183E-1;-2,324104309E-3
8,311821163E1;-4,188609123E-1;1,786248982E-1;8,775138855E-2
8,321821163E1;-2,977392972E-1;8,132609725E-2;3,020277023E-1
8,331821163E1;-3,519394696E-1;9,245809913E-2;3,950071335E-1
8,341821163E1;-2,818869054E-1;1,376997232E-1;3,857603073E-1
8,351821163E1;-2,941917181E-1;2,047266960E-1;6,610870361E-2
8,361821163E1;-2,071719319E-1;1,803597361E-1;-8,325958252E-2
8,371821163E1;-1,343797594E-1;2,335342020E-1;-1,393585205E-1
8,381821163E1;-1,403882504E-1;2,024305314E-1;-1,524200439E-1
8,391821163E1;-3,194478154E-2;2,516539693E-1;1,889038086E-1
8,401821163E1;5,959510803E-3;2,630153000E-1;2,450952530E-1
8,411821163E1;3,920198977E-2;3,392081261E-1;3,227348328E-1
8,421821163E1;4,230320454E-2;3,537510633E-1;2,525434494E-1
8,431821163E1;1,178880781E-1;4,257274568E-1;1,298627853E-1
8,441821163E1;1,335593462E-1;4,507984519E-1;-6,234169006E-3
8,451821163E1;1,538338065E-1;4,577829838E-1;-5,087280273E-2
8,461821163E1;1,997874826E-1;5,362927318E-1;-5,640029907E-3
8,471821163E1;2,912034094E-1;5,675802231E-1;1,037311554E-1
8,481821163E1;2,498051077E-1;5,614982247E-1;2,030124664E-1
8,491821163E1;3,355506659E-1;6,559391022E-1;3,659200668E-1
8,501821163E1;3,417484760E-1;6,840152740E-1;3,171548843E-1
8,511821163E1;3,172747493E-1;7,000434399E-1;1,402540207E-1
8,521821163E1;3,177095354E-1;7,033889890E-1;8,517169952E-2
8,531821163E1;2,680573761E-1;7,137867212E-1;-2,034940720E-1
8,541821163E1;3,163397610E-1;7,365522385E-1;-2,127513885E-1
8,551821163E1;3,555252254E-1;7,486934662E-1;1,512622833E-2
8,561821163E1;3,100668788E-1;7,349740267E-1;3,009281158E-1
8,571821163E1;3,198258877E-1;6,721885204E-1;3,626585007E-1
8,581821163E1;2,162867337E-1;7,493933439E-1;3,164072037E-1
8,591821163E1;2,876541615E-1;7,366158962E-1;2,060489655E-1
8,601821163E1;3,639855981E-1;7,142881155E-1;-3,152942657E-2
8,611821163E1;3,143229485E-1;7,498258948E-1;-1,835632324E-1
8,621821163E1;3,094671071E-1;6,139055490E-1;-3,485240936E-1
8,631821163E1;2,889067233E-1;6,202808022E-1;-2,431201935E-2
8,641821163E1;3,097088337E-1;7,148741484E-1;4,344491959E-1
8,651821163E1;3,623413444E-1;6,256583929E-1;3,704605103E-1
8,661821163E1;3,958043456E-1;5,004905462E-1;9,747123718E-2
8,671821163E1;3,342624605E-1;4,527968466E-1;-1,004590988E-1
8,681821163E1;2,868457437E-1;4,461551607E-1;-2,671594620E-1
8,691821163E1;3,257609010E-1;4,611702561E-1;-1,937646866E-1
8,701821163E1;2,406908274E-1;5,015302300E-1;-7,321834564E-2
8,711821163E1;2,748729289E-1;4,906243980E-1;-6,879901886E-2
8,721821163E1;2,113834918E-1;3,177156150E-1;4,971504211E-3
8,731821163E1;2,191003710E-1;2,418707609E-1;1,671390533E-1
8,741821163E1;2,214180231E-1;3,227189779E-1;2,272748947E-1
8,751821163E1;2,668945491E-1;3,471582532E-1;1,808423996E-1
8,761821163E1;2,996533513E-1;3,657397032E-1;2,871322632E-2
8,771821163E1;3,113184571E-1;3,491723835E-1;-9,553337097E-2
8,781821163E1;2,894063294E-1;3,113061190E-1;-2,315301895E-1
8,791821163E1;2,972629666E-1;2,392842323E-1;-2,245130539E-1
8,801821163E1;2,524400353E-1;2,788041234E-1;-6,768226624E-2
8,811821163E1;2,337586880E-1;2,634229064E-1;1,510667801E-1
8,821821163E1;2,120121866E-1;2,396794409E-1;2,277994156E-1
8,831821163E1;2,576831877E-1;2,750166953E-1;2,549982071E-1
8,841821163E1;2,620633245E-1;2,421368957E-1;1,537456512E-1
8,851821163E1;2,868109047E-1;1,984314620E-1;-9,705448151E-2
8,861821163E1;3,159093261E-1;1,869600117E-1;-2,481670380E-1
8,871821163E1;2,657876611E-1;2,499769926E-1;-2,264566422E-1
8,881821163E1;2,633688450E-1;2,185328454E-1;-1,476240158E-1
8,891821163E1;2,435841858E-1;2,040783018E-1;5,546569824E-2
8,901821163E1;1,939273924E-1;2,156160325E-1;1,435785294E-1
8,911821163E1;2,027102411E-1;1,650151610E-1;1,975984573E-1
8,921821163E1;2,214272767E-1;1,556433439E-1;1,440925598E-1
8,931821163E1;2,026426196E-1;1,650787294E-1;-1,433753967E-2
8,941821163E1;2,154701352E-1;1,809002161E-1;-6,578350067E-2
8,951821163E1;2,673147917E-1;1,769510210E-1;-1,624641418E-1
8,961821163E1;2,324604541E-1;1,825589985E-1;-1,517553329E-1
8,971821163E1;2,180742323E-1;1,451257914E-1;3,865051270E-2
8,981821163E1;2,137566507E-1;1,617822647E-1;1,289243698E-1
8,991821163E1;1,807956845E-1;1,392262876E-1;1,810970306E-1
9,001821163E1;2,045132965E-1;7,518862188E-2;7,750034332E-2
9,011821163E1;2,257364094E-1;1,014312208E-1;-1,999855042E-2
9,021821163E1;2,269034982E-1;9,571233392E-2;-1,121377945E-1
9,031821163E1;2,404219508E-1;1,260927469E-1;-8,656883240E-2
9,041821163E1;2,443647683E-1;1,357342452E-1;-5,385684967E-2
9,051821163E1;2,282697111E-1;1,199549139E-1;-8,982753754E-2
9,061821163E1;1,452292800E-1;5,753999949E-2;6,178474426E-2
9,071821163E1;1,391566396E-1;4,290173948E-2;1,056938171E-1
9,081821163E1;2,038412243E-1;9,078030288E-2;1,621665955E-1
9,091821163E1;2,596585155E-1;8,458894491E-2;8,448886871E-2
9,101821163E1;2,581479847E-1;1,469874382E-1;-9,730815887E-2
9,111821163E1;2,544412017E-1;1,344801188E-1;-1,043291092E-1
9,121821163E1;2,134449035E-1;7,792580873E-2;-7,951927185E-2
9,131821163E1;2,121704966E-1;6,021784246E-2;-8,168792725E-2
9,141821163E1;1,620323956E-1;-1,770864427E-2;1,486778259E-3
9,151821163E1;1,408753544E-1;-2,473627031E-2;2,252197266E-2
9,161821163E1;1,716491580E-1;-6,910844147E-2;-2,862930298E-3
9,171821163E1;1,526994109E-1;-8,498522639E-2;9,225749969E-2
9,181821163E1;1,703738421E-1;-1,015378535E-1;1,016445160E-1
9,191821163E1;1,839500964E-1;-7,706990838E-2;4,259490967E-2
9,201821163E1;1,961301863E-1;-1,186377406E-1;-1,275072098E-1
9,211821163E1;2,193259895E-1;-1,139993966E-1;-1,560134888E-1
9,221821163E1;2,087069750E-1;-1,306857318E-1;-1,026077271E-1
9,231821163E1;1,617242396E-1;-1,318277717E-1;-2,901840210E-2
9,241821163E1;1,911073923E-1;-4,167488217E-2;2,826099396E-1
9,251821163E1;1,771036983E-1;-3,206579387E-2;2,409286499E-1
9,261821163E1;1,937201917E-1;-7,037895918E-2;4,762172699E-2
9,271821163E1;1,732801795E-1;-1,524311751E-1;-5,911064148E-2
9,281821163E1;1,856094748E-1;-1,709345132E-1;-1,981601715E-1
9,291821163E1;2,021154165E-1;-1,748866141E-1;-2,721967697E-1
9,301821163E1;2,100087106E-1;-1,702115387E-1;-2,031879425E-1
9,311821163E1;1,916486323E-1;-7,819670439E-2;-3,432559967E-2
9,321821163E1;1,745027602E-1;-8,903910220E-2;6,718254089E-2
9,331821163E1;1,426581442E-1;-7,597279549E-2;2,674016953E-1
9,341821163E1;1,346065700E-1;-8,211751282E-2;2,334461212E-1
9,351821163E1;1,406185180E-1;-8,323723078E-2;9,095668793E-2
9,361821163E1;1,622359902E-1;-1,117691398E-1;1,057624817E-2
9,371821163E1;1,774562895E-1;-6,897620857E-2;-1,550407410E-1
9,381821163E1;1,916706264E-1;-8,484426141E-2;-2,064266205E-1
9,391821163E1;1,746855378E-1;-1,152126938E-1;-1,125593185E-1
9,401821163E1;1,578307301E-1;-1,148937047E-1;-7,881164551E-3
9,411821163E1;1,271415949E-1;-1,446568072E-1;1,046876907E-1
9,421821163E1;7,599252462E-2;-1,486364156E-1;1,658992767E-1
9,431821163E1;1,325531900E-1;-1,935585439E-1;1,183748245E-1
9,441821163E1;1,404276788E-1;-1,870037317E-1;1,008415222E-1
9,451821163E1;1,808462590E-1;-1,681026071E-1;-4,406070709E-2
9,461821163E1;1,738363653E-1;-1,367371827E-1;-1,028051376E-1
9,471821163E1;2,031320632E-1;-1,267222613E-1;-1,422119141E-1
9,481821163E1;1,970852464E-1;-1,473824829E-1;-3,144645691E-2
9,491821163E1;2,009173781E-1;-1,366445720E-1;1,342973709E-1
9,501821163E1;1,970921755E-1;-1,698828787E-1;8,121013641E-2
9,511821163E1;2,263666093E-1;-1,790028661E-1;5,671119690E-2
9,521821163E1;2,241325825E-1;-1,843496710E-1;4,150962830E-2
9,531821163E1;2,356291711E-1;-1,317127347E-1;-4,851150513E-2
9,541821163E1;2,363940179E-1;-1,145836860E-1;-1,093626022E-1
9,551821163E1;1,993457228E-1;-9,517827630E-2;-1,181449890E-1
9,561821163E1;2,209420204E-1;-1,551243067E-1;-4,881000519E-2
9,571821163E1;2,213079333E-1;-1,228114963E-1;-9,622859955E-2
9,581821163E1;2,328950912E-1;-1,680783331E-1;2,223968506E-3
9,591821163E1;2,113053203E-1;-1,866100132E-1;1,168165207E-1
9,601821163E1;1,733116359E-1;-1,355076134E-1;6,930828094E-2
9,611821163E1;2,806369662E-1;-1,226182580E-1;7,964134216E-3
9,621821163E1;1,143773049E-1;-1,170034707E-1;-1,012735367E-1
9,631821163E1;9,382536262E-2;-1,269249320E-1;-1,841306686E-1
9,641821163E1;9,402477741E-2;-1,426916718E-1;-1,180000305E-1
9,651821163E1;1,493479609E-1;-1,588531733E-1;-1,076412201E-2
9,661821163E1;1,778385639E-1;-1,235358715E-1;1,128540039E-1
9,671821163E1;2,267130762E-1;-9,974923730E-2;1,128101349E-1
9,681821163E1;2,084415108E-1;-8,936884999E-2;1,228456497E-1
9,691821163E1;2,084592730E-1;-1,069890559E-1;2,609157562E-2
9,701821163E1;1,959957629E-1;-1,187137961E-1;-9,101963043E-2
9,711821163E1;2,176929563E-1;-1,182083786E-1;-1,326160431E-1
9,721821163E1;2,107707411E-1;-1,338462830E-1;-1,330833435E-1
9,731821163E1;1,945229769E-1;-1,200041175E-1;-1,093378067E-1
9,741821163E1;2,052399069E-1;-1,417612731E-1;4,975318909E-2
9,751821163E1;1,976117194E-1;-9,920522571E-2;1,554727554E-1
9,761821163E1;2,120242417E-1;-1,195636988E-1;1,433219910E-1
9,771821163E1;2,197538912E-1;-1,343832314E-1;8,680248260E-2
9,781821163E1;2,323258817E-1;-1,197724938E-1;-6,789588928E-2
9,791821163E1;2,040320486E-1;-1,098043621E-1;-1,595277786E-1
9,801821163E1;2,278962880E-1;-1,315871775E-1;-1,794853210E-1
9,811821163E1;2,104864269E-1;-1,042450964E-1;-1,101655960E-1
9,821821163E1;2,391698956E-1;-1,050164402E-1;2,714633942E-2
9,831821163E1;2,012374103E-1;-7,543158531E-2;3,325853348E-1
9,841821163E1;2,012427002E-1;-7,870301604E-2;1,992158890E-1
9,851821163E1;1,317623854E-1;-1,302083731E-1;-9,844493866E-2
9,861821163E1;1,250599176E-1;-1,258838475E-1;-8,777809143E-2
9,871821163E1;1,225630790E-1;-1,195569932E-1;-2,740125656E-1
9,881821163E1;1,688921601E-1;-1,313537061E-1;-2,445793152E-1
9,891821163E1;2,032302618E-1;-6,752783060E-2;2,919673920E-2
9,901821163E1;2,328787446E-1;-7,495489717E-2;1,253709793E-1
9,911821163E1;1,671342999E-1;-9,717825055E-2;2,098703384E-1
9,921821163E1;1,693240702E-1;-1,271842718E-1;1,862173080E-1
9,931821163E1;1,610161215E-1;-9,888514876E-2;9,366703033E-2
9,941821163E1;1,622634977E-1;-7,694244385E-2;-5,429744720E-2
9,951821163E1;2,046310455E-1;-5,164721608E-2;-1,886682510E-1
9,961821163E1;2,091087848E-1;-5,143699050E-2;-1,737117767E-1
9,971821163E1;2,320130169E-1;-6,023600698E-2;-9,769725800E-2
9,981821163E1;2,225937992E-1;-7,574951649E-2;-8,006668091E-2
9,991821163E1;1,975739598E-1;-1,354438961E-1;7,868671417E-2
1,000182116E2;2,038084567E-1;-1,238631308E-1;1,241426468E-1
1,001182116E2;1,845617890E-1;-1,173998415E-1;1,348133087E-1
1,002182116E2;1,790140271E-1;-9,773483872E-2;1,065626144E-1
1,003182116E2;1,803179085E-1;-5,752235651E-2;-2,868175507E-2
1,004182116E2;1,875411570E-1;-3,903749585E-2;-6,506824493E-2
1,005182116E2;1,685283929E-1;-8,131811023E-2;-1,349725723E-1
1,006182116E2;1,645859927E-1;-1,065231264E-1;-1,781463623E-2
1,007182116E2;1,465532184E-1;-1,122185886E-1;3,275585175E-2
1,008182116E2;1,693361998E-1;-4,514738917E-2;1,613130569E-1
1,009182116E2;1,583459973E-1;-4,377561808E-2;1,454563141E-1
1,010182116E2;1,869739294E-1;-5,962896347E-2;5,770111084E-2
1,011182116E2;1,686120331E-1;-6,494796276E-2;-6,475734711E-2
1,012182116E2;1,464874148E-1;-8,599999547E-2;-1,341619492E-1
1,013182116E2;1,194347590E-1;-1,035446227E-1;-1,355991364E-1
1,014182116E2;1,721396744E-1;-8,314824104E-2;-5,697631836E-2
1,015182116E2;1,668546945E-1;-7,985767722E-2;1,710128784E-2
1,016182116E2;1,910030395E-1;-8,639273047E-2;1,293497086E-1
1,017182116E2;1,956087500E-1;-4,502871633E-2;1,527509689E-1
1,018182116E2;1,852251887E-1;-3,916028142E-2;8,665180206E-2
1,019182116E2;1,638184488E-1;-5,297937989E-2;-3,345203400E-2
1,020182116E2;1,467783898E-1;-6,850984693E-2;-1,862535477E-1
1,021182116E2;1,556012034E-1;-9,074610472E-2;-2,215099335E-1
1,022182116E2;1,661887467E-1;-4,843392968E-2;-1,133966446E-1
1,023182116E2;2,192590982E-1;-5,627021194E-2;1,092691422E-1
1,024182116E2;2,196418643E-1;-8,672803640E-3;3,528404236E-1
1,025182116E2;1,212505847E-1;-3,781011701E-2;1,944904327E-1
1,026182116E2;1,240051314E-1;-8,370053768E-2;-1,031789780E-1
1,027182116E2;1,073172539E-1;-1,008214951E-1;-1,055727005E-1
1,028182116E2;1,682235301E-1;-6,056776643E-2;1,310443878E-2
1,029182116E2;2,277050018E-1;-6,964462996E-2;-4,250907898E-2
1,030182116E2;2,121297568E-1;-1,481661201E-2;-1,031961441E-1
1,031182116E2;2,159831226E-1;-3,459092975E-2;-5,743598938E-2
1,032182116E2;6,394392252E-2;-9,381023049E-2;9,936332703E-3
1,033182116E2;9,008654952E-2;-1,063210070E-1;6,162261963E-2
1,034182116E2;1,040363014E-1;-3,208953142E-2;3,348255157E-2
1,035182116E2;2,242430151E-1;3,870931268E-2;3,364152908E-1
1,036182116E2;1,803385615E-1;6,108617783E-2;2,585935593E-1
1,037182116E2;2,161156088E-1;-3,098249435E-2;-1,695632935E-2
1,038182116E2;2,436548769E-1;-1,321103871E-1;-9,295272827E-2
1,039182116E2;1,996999085E-1;-1,231431365E-1;-2,312574387E-1
1,040182116E2;1,184348911E-1;-1,335553825E-1;-2,617807388E-1
1,041182116E2;1,268393844E-1;2,727633715E-2;-2,779960632E-1
1,042182116E2;1,054205000E-1;-2,325567603E-2;-2,204980850E-1
1,043182116E2;8,789378405E-2;-8,169314265E-2;-6,996154785E-3
1,044182116E2;9,326335043E-2;-1,147238910E-1;2,467107773E-1
1,045182116E2;1,514475495E-1;3,985214233E-2;7,182531357E-1
1,046182116E2;6,745867431E-2;5,550503731E-2;7,132797241E-1
1,047182116E2;6,491833925E-2;-3,290894628E-2;-1,230144501E-1
1,048182116E2;1,559456587E-1;-1,161927879E-1;-6,629781723E-1
1,049182116E2;1,144608632E-1;-4,931426048E-2;-6,580734253E-1
1,050182116E2;1,088815928E-1;-7,746526599E-2;-5,811529160E-1
1,051182116E2;1,719229370E-1;9,373694658E-3;-2,011804581E-1
1,052182116E2;2,123621106E-1;4,273450375E-2;1,473960876E-1
1,053182116E2;1,750070900E-1;-9,107020497E-2;4,982671738E-1
1,054182116E2;1,798842698E-1;-1,270784736E-1;5,581121445E-1
1,055182116E2;1,130446568E-1;-1,099524498E-1;2,769603729E-1
1,056182116E2;1,282446384E-1;-1,112744212E-2;-2,278518677E-1
1,057182116E2;1,048269793E-1;5,977064371E-3;-4,596338272E-1
1,058182116E2;2,288939059E-1;-2,247214317E-3;-5,590305328E-1
1,059182116E2;1,907838881E-1;-1,225948334E-3;-4,353504181E-1
1,060182116E2;2,169796228E-1;-5,241537094E-2;-1,223754883E-2
1,061182116E2;1,512788832E-1;-4,388311505E-2;1,340389252E-1
1,062182116E2;1,080906540E-1;-4,867756367E-2;3,905019760E-1
1,063182116E2;1,300051659E-1;-7,288599014E-2;4,125366211E-1
1,064182116E2;9,100227803E-2;-2,183502913E-2;1,942825317E-1
1,065182116E2;1,567380577E-1;4,381632805E-2;4,136562347E-2
1,066182116E2;1,533627063E-1;-1,675045490E-2;-3,591709137E-1
1,067182116E2;1,728169769E-1;-1,858764887E-2;-4,318771362E-1
1,068182116E2;1,654238850E-1;-8,127442002E-2;-2,848215103E-1
1,069182116E2;1,646157801E-1;-9,279465675E-2;-1,426458359E-1
1,070182116E2;7,035189867E-2;-6,466877460E-2;1,915674210E-1
1,071182116E2;6,721708179E-2;-3,531646729E-2;3,587741852E-1
1,072182116E2;3,097438812E-2;2,072802186E-2;2,555837631E-1
1,073182116E2;1,317040920E-1;-5,832740664E-2;5,438518524E-2
1,074182116E2;1,366253793E-1;-4,712671041E-2;-2,196741104E-1
1,075182116E2;1,641693562E-1;-5,339536071E-2;-1,903448105E-1
1,076182116E2;1,795614362E-1;3,250423074E-2;-8,667945862E-2
1,077182116E2;1,597139090E-1;1,887264848E-2;-2,492809296E-2
1,078182116E2;1,084621251E-1;2,405783534E-2;1,408290863E-1
1,079182116E2;9,443485737E-2;-2,699574828E-2;1,983728409E-1
1,080182116E2;1,420692801E-1;-7,711100578E-2;7,297229767E-2
1,081182116E2;1,587291658E-1;3,128892183E-2;1,773929596E-2
1,082182116E2;1,768325418E-1;-1,491004229E-2;-9,826660156E-3
1,083182116E2;1,649013013E-1;1,253184676E-2;-1,016321182E-1
1,084182116E2;1,469584107E-1;-4,256013036E-2;-5,567264557E-2
1,085182116E2;9,154605120E-2;-4,575222731E-2;4,301548004E-2
1,086182116E2;1,032687500E-1;-3,162974119E-2;8,977413177E-2
1,087182116E2;9,179817140E-2;-2,751708031E-2;1,561708450E-1
1,088182116E2;9,645728767E-2;-1,310503483E-2;1,427335739E-1
1,089182116E2;1,277382076E-1;-2,468338609E-2;-2,459144592E-2
1,090182116E2;1,568178982E-1;2,316460013E-2;-5,026531219E-2
1,091182116E2;1,448563039E-1;-1,568299532E-2;-3,870391846E-2
1,092182116E2;1,601018310E-1;3,394660354E-2;5,788803101E-3
1,093182116E2;1,106915921E-1;-1,961317658E-2;8,852100372E-2
1,094182116E2;1,267556101E-1;-1,816597581E-2;1,332159042E-1
1,095182116E2;1,137204170E-1;-4,305893183E-2;1,094436646E-1
1,096182116E2;1,192176044E-1;-4,553586245E-2;8,599376678E-2
1,097182116E2;1,121181622E-1;-3,750124574E-2;-8,066368103E-2
1,098182116E2;1,221036762E-1;-3,518939018E-2;-1,109123230E-1
1,099182116E2;1,364721209E-1;-1,858979464E-3;-2,344989777E-2
1,100182116E2;1,371335089E-1;6,991267204E-3;3,824234009E-2
1,101182116E2;1,183941960E-1;-1,412200928E-2;1,244010925E-1
1,102182116E2;1,257200539E-1;1,461097598E-2;1,203651428E-1
1,103182116E2;7,952609658E-2;-2,350562811E-2;5,165004730E-2
1,104182116E2;5,259270966E-2;-3,272905946E-2;-5,198097229E-2
1,105182116E2;7,113377005E-2;-5,339443684E-2;-7,906913757E-3
1,106182116E2;7,462334633E-2;2,296826243E-2;2,398872375E-2
1,107182116E2;1,201662421E-1;8,780121803E-3;2,369785309E-2
1,108182116E2;1,164526269E-1;1,493215561E-2;6,472015381E-2
1,109182116E2;1,128132939E-1;1,198425889E-2;1,890087128E-2
1,110182116E2;1,282054335E-1;-3,661113977E-2;-9,296512604E-2
1,111182116E2;4,472595453E-2;-7,216304541E-3;-7,311534882E-2
1,112182116E2;1,122351438E-1;-1,030367613E-2;1,666288376E-1
1,113182116E2;2,333782464E-1;8,337664604E-2;1,535768509E-1
1,114182116E2;1,231374592E-1;7,517457008E-3;-1,727867126E-2
1,115182116E2;9,463451803E-2;3,409385681E-4;3,874015808E-2
1,116182116E2;4,766829312E-2;2,319732308E-2;-2,384662628E-2
1,117182116E2;1,177141592E-1;-6,299430132E-2;-1,019983292E-1
1,118182116E2;6,772310287E-2;4,124116898E-2;-6,013488770E-2
1,119182116E2;2,072032988E-1;5,497393012E-2;4,873752594E-2
1,120182116E2;9,306404740E-2;3,413864970E-2;1,688575745E-2
1,121182116E2;1,692028195E-1;9,121894836E-3;1,215505600E-1
1,122182116E2;8,325746655E-2;-1,059171557E-2;1,883316040E-2
1,123182116E2;1,066359803E-1;2,322167158E-3;1,231803894E-1
1,124182116E2;1,259156018E-1;1,336807013E-2;2,534713745E-1
1,125182116E2;8,463700116E-2;4,540461302E-2;7,354736328E-2
1,126182116E2;1,115794852E-1;4,286700487E-2;-2,060279846E-1
1,127182116E2;1,376720518E-1;-2,393323183E-2;-2,587070465E-1
1,128182116E2;5,305203795E-2;-4,942089319E-2;-4,128665924E-1
1,129182116E2;3,837363422E-2;1,907652617E-2;-8,359527588E-2
1,130182116E2;1,581966132E-1;-1,056402922E-3;7,837390900E-2
1,131182116E2;7,689787447E-2;-1,168012619E-3;1,181688309E-1
1,132182116E2;1,349893063E-1;-1,031392813E-2;1,644220352E-1
1,133182116E2;1,264482588E-1;-5,296796560E-3;6,714820862E-2
1,134182116E2;1,381469220E-1;1,467373967E-2;-8,467769623E-2
1,135182116E2;1,526706070E-1;1,026779413E-2;-2,135715485E-1
1,136182116E2;1,075324491E-1;3,896361589E-2;-3,590250015E-1
1,137182116E2;1,679207981E-1;2,498102188E-2;-2,350606918E-1
1,138182116E2;4,528683424E-2;6,606808305E-2;-2,348814011E-1
1,139182116E2;-5,641303957E-3;9,648978710E-3;-1,848697662E-2
1,140182116E2;-4,754737020E-4;1,334488392E-2;3,964614868E-2
1,141182116E2;-5,287694931E-2;-3,429681063E-3;5,308532715E-2
1,142182116E2;1,618030667E-2;5,593121052E-3;7,011699677E-2
1,143182116E2;3,746163473E-2;5,328735709E-2;-4,301548004E-2
1,144182116E2;-5,749150366E-2;3,071004152E-2;-1,934375763E-1
1,145182116E2;5,598166957E-2;3,510916233E-2;-1,068925858E-1
1,146182116E2;-1,322877705E-1;3,182709217E-3;-2,362451553E-1
1,147182116E2;-3,102502227E-2;5,909532309E-2;-1,372804642E-1
1,148182116E2;-4,274260625E-2;1,916113496E-2;-6,676864624E-2
1,149182116E2;-3,681473434E-2;4,325732589E-2;6,678962708E-2
1,150182116E2;1,566144526E-1;1,960125566E-2;1,084012985E-1
1,151182116E2;3,902821243E-2;-1,417276263E-2;-2,348041534E-2
1,152182116E2;6,924355775E-2;2,705952525E-2;-8,163928986E-2
1,153182116E2;1,575813144E-1;-1,218715310E-2;-9,701251984E-2
1,154182116E2;5,990122259E-2;-3,502905369E-3;-3,404798508E-1
1,155182116E2;1,040572152E-1;4,045617580E-2;-1,053800583E-1
1,156182116E2;4,105542600E-2;1,909199357E-2;2,201271057E-2
1,157182116E2;3,263039142E-2;6,184852123E-2;7,044792175E-2
1,158182116E2;7,935660332E-2;2,665898204E-2;1,275167465E-1
1,159182116E2;1,744764857E-2;2,706912160E-2;2,916526794E-2
1,160182116E2;3,186663613E-2;4,579439759E-2;-8,732128143E-2
1,161182116E2;5,185832083E-2;-1,415580511E-3;-8,212184906E-2
1,162182116E2;-5,803544819E-2;4,765081406E-2;-1,758842468E-1
1,163182116E2;8,433764800E-3;3,958576918E-2;-8,769130707E-2
1,164182116E2;1,204405352E-2;4,749798775E-2;9,115886688E-2
1,165182116E2;9,770952165E-4;1,839515567E-2;-2,633094788E-3
1,166182116E2;1,926998794E-2;-3,520664573E-2;-1,210689545E-1
1,167182116E2;3,256790340E-2;-3,496342897E-2;-2,023429871E-1
1,168182116E2;4,744924605E-3;-3,362774849E-2;-2,173109055E-1
1,169182116E2;-1,960018277E-2;1,031461358E-2;-2,025508881E-1
1,170182116E2;4,382825643E-2;6,191259623E-2;9,777832031E-2
1,171182116E2;5,878110230E-2;6,681145728E-2;1,676502228E-1
1,172182116E2;3,779011592E-2;-1,141405106E-2;3,762245178E-3
1,173182116E2;7,212348282E-3;-1,765513420E-2;-1,678857803E-1
1,174182116E2;4,149343073E-2;-2,056193352E-2;-3,721780777E-1
1,175182116E2;2,868834510E-2;-1,596993208E-2;-3,362817764E-1
1,176182116E2;6,826296449E-2;7,789234817E-2;1,125030518E-1
1,177182116E2;-1,485223137E-2;9,782338142E-2;1,507749557E-1
1,178182116E2;-4,961127043E-2;3,723403811E-2;2,274284363E-1
1,179182116E2;-6,370300055E-2;-6,596231461E-2;1,513662338E-1
1,180182116E2;-7,926084101E-2;-1,987391710E-2;1,113643646E-1
1,181182116E2;6,571979821E-2;6,315410137E-2;-1,076984406E-2
1,182182116E2;6,709050387E-2;4,928922653E-2;-7,494640350E-2
1,183182116E2;-2,039158717E-2;-1,258292794E-2;-3,386249542E-1
1,184182116E2;5,208009481E-2;-4,055476189E-2;-2,826375961E-1
1,185182116E2;-1,855940744E-2;-6,691884995E-2;-2,441473007E-1
1,186182116E2;-3,613866866E-3;-2,870610356E-2;-9,819221497E-2
1,187182116E2;-3,339894116E-2;-1,619124413E-2;1,886053085E-1
1,188182116E2;2,004645765E-3;1,351028681E-3;2,645549774E-1
1,189182116E2;-1,500915736E-2;-7,403492928E-4;2,574691772E-1
1,190182116E2;-4,147807509E-2;6,058841944E-3;9,165954590E-2
1,191182116E2;-1,796615869E-2;-2,012252808E-2;-2,215652466E-1
1,192182116E2;-1,888169348E-2;-3,579163551E-2;-2,973957062E-1
1,193182116E2;-3,486750647E-3;1,137313247E-2;-2,410993576E-1
1,194182116E2;1,557235233E-2;3,177103400E-2;-1,450767517E-1
1,195182116E2;1,843227819E-2;1,445892453E-2;9,447669983E-2
1,196182116E2;1,076061651E-2;-1,399219036E-4;1,646823883E-1
1,197182116E2;-3,281908482E-2;-1,415380836E-2;2,781019211E-1
1,198182116E2;-9,503593668E-3;-1,828512549E-2;1,877899170E-1
1,199182116E2;-1,542872656E-2;-1,155042648E-2;-4,038238525E-2
1,200182116E2;-1,186170243E-2;-4,299783707E-2;-9,158992767E-2
1,201182116E2;1,429390442E-2;-4,088199139E-2;-1,959581375E-1
1,202182116E2;-1,695232466E-3;-1,944532990E-2;-1,661558151E-1
1,203182116E2;1,334916987E-2;-3,042432666E-2;-4,095554352E-2
1,204182116E2;2,247149684E-2;-1,501321793E-2;9,427070618E-2
1,205182116E2;1,550195552E-2;-2,395486832E-2;1,461477280E-1
1,206182116E2;4,712359235E-2;-3,058314323E-2;8,864593506E-2
1,207182116E2;3,782516718E-2;-5,522638559E-2;-1,093959808E-2
1,208182116E2;4,638139904E-2;-8,280164003E-2;-2,606220245E-1
1,209182116E2;3,418989480E-2;-1,872199774E-2;-3,333082199E-1
1,210182116E2;-1,128950901E-2;-2,223578095E-2;-2,188034058E-1
1,211182116E2;-2,465665713E-2;5,470335484E-3;-4,023551941E-2
1,212182116E2;-3,490653262E-2;-4,387807846E-2;1,287021637E-1
1,213182116E2;-6,302116811E-2;-4,106596112E-2;3,242769241E-1
1,214182116E2;-1,404893771E-2;-1,761493087E-2;3,688583374E-1
1,215182116E2;-2,989661880E-2;-3,823149204E-2;1,242036819E-1
1,216182116E2;-1,253764182E-1;-5,189827085E-2;-3,206157684E-1
1,217182116E2;-2,742752247E-2;-8,345907927E-2;-3,370761871E-1
1,218182116E2;-3,772599250E-2;8,614557981E-2;2,721853256E-1
1,219182116E2;8,979611844E-2;7,307863235E-2;3,672266006E-1
1,220182116E2;8,529609069E-3;-4,378914833E-2;1,069555283E-1
1,221182116E2;3,495339677E-2;-1,452051699E-1;-1,494216919E-1
1,222182116E2;-2,617725544E-2;-1,699241996E-1;-3,428335190E-1
1,223182116E2;1,851833984E-2;-8,782067895E-2;-3,234052658E-1
1,224182116E2;2,500162274E-2;2,872765064E-3;-4,349994659E-2
1,225182116E2;-2,808077075E-2;3,991410136E-2;2,100753784E-2
1,226182116E2;5,143988132E-2;-1,059476733E-1;1,724500656E-1
1,227182116E2;6,400695443E-2;-3,496700525E-2;5,060644150E-1
1,228182116E2;2,036186308E-2;-3,204751015E-2;1,009998322E-1
1,229182116E2;-6,617998332E-2;9,666681290E-3;-2,589025497E-1
1,230182116E2;2,458656090E-4;-2,843654156E-2;-3,697490692E-1
1,231182116E2;-3,496977314E-2;-2,712982893E-2;-2,792615891E-1
1,232182116E2;-8,750953712E-3;4,907369614E-3;-1,607751846E-1
1,233182116E2;-4,097360373E-2;2,137929201E-3;1,865978241E-1
1,234182116E2;-3,203863278E-2;-5,991348624E-2;3,633050919E-1
1,235182116E2;-7,040279359E-2;-5,663585663E-2;3,579759598E-1
1,236182116E2;-3,401654959E-2;-4,107883573E-2;3,261890411E-1
1,237182116E2;-4,829038307E-2;-2,217796445E-2;-1,044712067E-1
1,238182116E2;-1,495547593E-2;-1,764011383E-2;-2,639722824E-1
1,239182116E2;1,286365092E-3;-8,521449566E-2;-4,868869781E-1
1,240182116E2;4,260900617E-2;-5,215281248E-2;-3,347330093E-1
1,241182116E2;6,340504438E-2;-2,069494128E-2;6,091976166E-2
1,242182116E2;3,427928686E-2;-1,870512962E-2;1,687679291E-1
1,243182116E2;6,356966496E-2;-2,369618416E-2;3,388090134E-1
1,244182116E2;1,021177322E-1;-3,780105710E-2;3,036270142E-1
1,245182116E2;1,691078953E-2;-5,799770355E-2;-9,153366089E-2
1,246182116E2;2,823203616E-2;-6,165364385E-2;-2,876510620E-1
1,247182116E2;4,135401547E-2;-1,546540856E-2;-4,554986954E-1
1,248182116E2;2,003562450E-2;-4,564341903E-2;-3,998355865E-1
1,249182116E2;-1,984669827E-2;-3,080210090E-2;-1,597976685E-2
1,250182116E2;-8,708186448E-2;-3,195911646E-2;1,030082703E-1
1,251182116E2;-6,423091143E-2;-3,743526340E-2;4,085798264E-1
1,252182116E2;-7,644283772E-2;3,092947602E-2;4,808015823E-1
1,253182116E2;-3,748643771E-2;-4,510349035E-2;9,629535675E-2
1,254182116E2;-1,522856653E-1;-1,243826747E-2;-3,795070648E-1
1,255182116E2;-1,076103225E-1;-9,627178311E-2;-3,830242157E-1
1,256182116E2;-1,112456843E-1;-1,146021485E-2;-2,189598083E-1
1,257182116E2;-4,459552467E-2;-4,173356295E-2;-1,245460510E-1
1,258182116E2;-5,352521315E-2;3,247326612E-2;3,322143555E-1
1,259182116E2;-5,315700173E-2;-2,124989033E-2;3,921432495E-1
1,260182116E2;4,111055285E-2;-3,736448288E-2;1,879463196E-1
1,261182116E2;1,210913062E-3;-7,235959172E-2;-2,962875366E-2
1,262182116E2;2,130283862E-1;2,798032761E-2;7,097244263E-2
1,263182116E2;8,627845347E-2;2,551537752E-2;2,048969269E-2
1,264182116E2;7,196163386E-2;4,827150702E-2;-1,746768951E-1
1,265182116E2;3,031641245E-4;-3,042677045E-2;-2,933912277E-1
1,266182116E2;7,742606848E-2;-7,639035583E-2;-3,601455688E-1
1,267182116E2;1,042135209E-1;-8,682918549E-2;-1,924228668E-1
1,268182116E2;4,211338609E-2;-2,645599842E-2;1,815109253E-1
1,269182116E2;4,862615466E-2;1,466271281E-2;3,341369629E-1
1,270182116E2;-1,323485374E-2;-6,112539768E-2;1,350440979E-1
1,271182116E2;1,662270725E-2;-8,250346780E-2;8,802604675E-2
1,272182116E2;3,089849092E-2;9,795665741E-3;8,081340790E-2
1,273182116E2;8,969244361E-2;2,408671379E-2;3,469562531E-2
1,274182116E2;1,385704055E-2;1,781660318E-2;-2,776794434E-1
1,275182116E2;-5,149693787E-2;-3,467431664E-2;-3,532266617E-1
1,276182116E2;-1,371217519E-1;-6,354510784E-2;-2,249889374E-1
1,277182116E2;-1,286233217E-1;-3,367063403E-2;-1,645622253E-1
1,278182116E2;-1,545240432E-1;5,487799644E-3;2,553815842E-1
1,279182116E2;-1,239551976E-1;-1,953250170E-2;4,285097122E-1
1,280182116E2;-4,857487977E-2;-8,506476879E-3;4,695396423E-1
1,281182116E2;-2,486572973E-2;-3,398981690E-2;-1,801109314E-2
1,282182116E2;1,928352192E-2;-1,976767182E-2;-2,037305832E-1
1,283182116E2;4,360987991E-2;-2,551054955E-2;-4,287996292E-1
1,284182116E2;9,488483518E-2;-2,091044188E-2;-3,989715576E-1
1,285182116E2;7,316884398E-2;8,065402508E-3;-1,152286530E-1
1,286182116E2;5,209532008E-2;-2,067655325E-2;9,468078613E-3
1,287182116E2;2,692149580E-2;-5,381849408E-2;2,611331940E-1
1,288182116E2;3,833856434E-2;-3,566226363E-2;2,810611725E-1
1,289182116E2;4,010901973E-2;-3,698989749E-2;1,648654938E-1
1,290182116E2;5,037959665E-2;-2,875360847E-2;6,239414215E-2
1,291182116E2;3,731046245E-2;-1,571342349E-2;-2,262573242E-1
1,292182116E2;6,743099540E-2;-1,458951831E-2;-3,304643631E-1
1,293182116E2;4,116382450E-2;-2,250373363E-3;-2,514848709E-1
1,294182116E2;-1,029593498E-2;-4,951092601E-2;-1,173076630E-1
1,295182116E2;-1,206318382E-2;-9,232491255E-3;1,798973083E-1
1,296182116E2;-5,158267543E-2;-2,080202103E-2;2,026481628E-1
1,297182116E2;-6,968811154E-2;-2,088361979E-2;1,576013565E-1
1,298182116E2;-5,694691837E-2;-2,346599102E-2;1,336364746E-1
1,299182116E2;-3,758846782E-3;-8,347570896E-3;2,912712097E-2
1,300182116E2;-4,354378581E-2;-3,253629804E-2;-9,479904175E-2
1,301182116E2;-3,297898918E-2;1,256176829E-2;-8,423233032E-2
1,302182116E2;-3,874666244E-2;1,485842466E-2;-1,619482040E-1
1,303182116E2;3,975678701E-4;1,422253251E-2;-1,987075806E-2
1,304182116E2;2,000263892E-2;-1,296699047E-4;1,663618088E-1
1,305182116E2;6,502157450E-2;-2,142068744E-2;2,535705566E-1
1,306182116E2;4,186221957E-2;-4,073959589E-2;8,171558380E-2
1,307182116E2;6,458124518E-2;-2,784714103E-2;-1,267843246E-1
1,308182116E2;3,345143795E-2;-2,756237984E-3;-1,976633072E-1
1,309182116E2;6,120102853E-2;-3,281468153E-2;-1,612415314E-1
1,310182116E2;4,859658331E-2;-1,954257488E-3;-4,823207855E-2
1,311182116E2;7,372954488E-2;-2,121052146E-2;-5,446338654E-2
1,312182116E2;4,466975480E-2;-2,695605159E-2;8,566284180E-2
1,313182116E2;3,977549076E-2;-1,361182332E-2;8,953571320E-2
1,314182116E2;3,534625471E-2;-1,045933366E-2;8,240795135E-2
1,315182116E2;1,814492978E-2;-5,214720964E-3;3,043174744E-3
1,316182116E2;1,236371696E-2;-2,200567722E-2;-6,744575500E-2
1,317182116E2;-9,974089451E-3;3,069913387E-2;-9,687328339E-2
1,318182116E2;-3,963254765E-2;2,113980055E-2;-1,332654953E-1
1,319182116E2;-2,626720071E-2;-5,611389875E-3;-9,986495972E-2
1,320182116E2;5,647144746E-3;-2,121093869E-2;8,361816406E-2
1,321182116E2;-3,939528391E-2;-2,800258994E-2;8,097171783E-2
1,322182116E2;-2,102282643E-2;6,391376257E-3;1,135063171E-1
1,323182116E2;-1,423807256E-2;-1,566442847E-2;8,768558502E-2
1,324182116E2;-1,944507472E-3;-1,564854383E-2;-3,307533264E-2
1,325182116E2;-5,922093987E-5;-1,473918557E-2;-6,733512878E-2
1,326182116E2;5,867996812E-2;5,100697279E-3;-6,709671021E-2
1,327182116E2;6,965261698E-2;1,528123021E-2;-4,983043671E-2
1,328182116E2;4,192336649E-2;6,036639214E-3;-2,346992493E-3
1,329182116E2;-1,848184876E-2;-1,254475117E-2;3,310489655E-2
1,330182116E2;2,441638522E-2;-1,543548703E-2;4,307174683E-2
1,331182116E2;2,152994275E-2;4,669487476E-3;-2,371788025E-3
1,332182116E2;3,821609542E-2;8,393853903E-3;2,459907532E-2
1,333182116E2;8,580334485E-3;-8,717864752E-3;-3,584384918E-2
1,334182116E2;1,853198372E-2;-1,998499036E-2;-4,062843323E-2
1,335182116E2;7,675392553E-4;-2,553966641E-2;-4,905796051E-2
1,336182116E2;4,257590510E-3;-6,109833717E-3;-1,862812042E-2
1,337182116E2;-4,529635236E-2;1,184570789E-2;2,198314667E-2
1,338182116E2;1,752348058E-2;-7,640212774E-3;1,068420410E-1
1,339182116E2;-5,259150639E-3;-9,707808495E-4;6,514739990E-2
1,340182116E2;3,535341471E-2;-3,695547581E-3;4,741859436E-2
1,341182116E2;1,571920700E-2;7,632762194E-3;-2,315139771E-2
1,342182116E2;4,728331044E-2;1,940700412E-2;-3,167152405E-2
1,343182116E2;4,601104185E-3;9,741336107E-3;-6,247520447E-2
1,344182116E2;3,665838018E-2;3,175786138E-2;2,083015442E-2
1,345182116E2;7,442282978E-3;-1,301205158E-2;1,420993805E-1
1,346182116E2;5,915737152E-2;-8,429139853E-3;1,651630402E-1
1,347182116E2;1,423886605E-2;-3,709509969E-2;4,606056213E-2
1,348182116E2;9,380920976E-2;-2,053746581E-2;-1,021862030E-1
1,349182116E2;4,327614233E-2;6,769895554E-3;-5,732631683E-2
1,350182116E2;4,057345539E-2;1,241606474E-2;9,005355835E-2
1,351182116E2;1,164910756E-2;3,079584241E-2;1,010160446E-1
1,352182116E2;1,042547915E-2;1,463726163E-2;1,283740997E-2
1,353182116E2;3,594282269E-2;1,717656851E-3;-1,883506775E-2
1,354182116E2;4,951031134E-2;1,596131921E-2;-1,867961884E-2
1,355182116E2;2,772536501E-2;7,567286491E-3;-2,122306824E-2
1,356182116E2;2,930674702E-2;2,329051495E-3;4,268169403E-2
1,357182116E2;1,091956627E-2;6,549060345E-4;5,294609070E-2
1,358182116E2;1,733807474E-2;2,341058850E-2;1,777267456E-1
1,359182116E2;1,853404008E-2;3,278118372E-2;1,578197479E-1
1,360182116E2;3,958610073E-2;1,005282998E-2;3,152942657E-2
1,361182116E2;4,090341926E-2;1,193299890E-2;-2,292156219E-2
1,362182116E2;2,341406979E-2;5,735337734E-3;-8,870029449E-2
1,363182116E2;5,154865608E-2;-2,124756575E-3;-2,914714813E-2
1,364182116E2;7,443619519E-2;1,618984342E-2;9,739685059E-2
1,365182116E2;5,271943286E-2;1,547729969E-2;6,482601166E-2
1,366182116E2;3,532052413E-2;8,078813553E-4;3,859806061E-2
1,367182116E2;3,493380919E-2;-1,315772533E-3;9,786128998E-2
1,368182116E2;1,433726400E-2;2,478045225E-2;7,164955139E-2
1,369182116E2;1,710895635E-2;3,197595477E-2;-6,738853455E-2
1,370182116E2;-3,432851285E-2;-1,857885718E-2;-2,517547607E-1
1,371182116E2;2,815252542E-2;-1,132786274E-3;-1,388740540E-1
1,372182116E2;-3,166435659E-2;3,466424346E-2;1,311779022E-2
1,373182116E2;-8,235737681E-3;5,468726158E-2;1,469316483E-1
1,374182116E2;-5,278281868E-2;3,583782911E-2;3,164176941E-1
1,375182116E2;-2,212543041E-2;3,964453936E-2;3,491373062E-1
1,376182116E2;-2,125556767E-2;3,317043185E-2;1,202545166E-1
1,377182116E2;4,467681423E-2;3,141960502E-2;-1,032505035E-1
1,378182116E2;4,341402277E-2;3,440916538E-2;5,630493164E-3
1,379182116E2;9,521438926E-2;6,746754050E-2;1,269721985E-1
1,380182116E2;-1,539339870E-2;1,237669587E-2;-9,548187256E-2
1,381182116E2;4,415197670E-2;-5,865579844E-2;-2,240819931E-1
1,382182116E2;1,026782673E-2;-4,364454746E-2;-2,640867233E-1
1,383182116E2;7,188323885E-2;-1,531648636E-2;-1,871118546E-1
1,384182116E2;6,027963385E-2;1,784151793E-2;-7,476425171E-2
1,385182116E2;6,573811173E-2;2,129903436E-2;1,684446335E-1
1,386182116E2;6,069067866E-2;3,240981698E-2;2,464303970E-1
1,387182116E2;8,561932296E-2;8,337599039E-2;1,302852631E-1
1,388182116E2;1,242723875E-2;3,007924557E-2;-8,159732819E-2
1,389182116E2;1,851337031E-3;8,899390697E-3;-5,376577377E-1
1,390182116E2;-1,227646321E-2;3,995570540E-2;-7,350387573E-1
1,391182116E2;-4,451062530E-2;1,483312249E-2;-4,321928024E-1
1,392182116E2;-2,682793885E-2;3,874132037E-2;3,580379486E-2
1,393182116E2;-7,719803602E-2;1,004413217E-1;7,369823456E-1
1,394182116E2;-8,511976898E-2;1,494640708E-1;8,204498291E-1
1,395182116E2;-9,075109661E-2;7,207265496E-2;4,495172501E-1
1,396182116E2;-6,090782210E-2;7,166770101E-2;1,607570648E-1
1,397182116E2;-5,970541388E-2;5,853390694E-2;-3,983240128E-1
1,398182116E2;1,117127016E-2;3,158998489E-2;-5,694618225E-1
1,399182116E2;7,663908601E-2;3,254324198E-3;-4,612522125E-1
1,400182116E2;1,047132909E-1;-8,753240108E-4;-1,945514679E-1
1,401182116E2;1,439097524E-1;2,954801917E-2;4,452123642E-1
1,402182116E2;9,909220040E-2;4,852640629E-2;5,051307678E-1
1,403182116E2;1,144316792E-1;2,133283019E-2;3,592519760E-1
1,404182116E2;1,365680397E-1;-3,719735146E-2;-9,465694427E-2
1,405182116E2;1,449971497E-1;2,676540613E-2;-2,451648712E-1
1,406182116E2;1,225995570E-1;2,528712153E-2;-4,660959244E-1
1,407182116E2;1,037239581E-1;1,375371218E-2;-4,177093506E-1
1,408182116E2;4,385958984E-2;1,656115055E-2;-8,700942993E-2
1,409182116E2;1,038825326E-2;2,359029651E-2;9,460449219E-4
1,410182116E2;-4,023886845E-2;5,290791392E-2;3,086194992E-1
1,411182116E2;-9,409181774E-2;9,652927518E-2;3,584489822E-1
1,412182116E2;-9,505657852E-2;4,523998499E-2;1,981010437E-1
1,413182116E2;-1,219022870E-1;3,727468848E-2;5,608463287E-2
1,414182116E2;-8,282248676E-2;3,555318713E-2;-7,840919495E-2
1,415182116E2;-6,821672618E-2;5,319651961E-2;-2,314052582E-1
1,416182116E2;1,391988620E-2;1,071962714E-1;-1,306743622E-1
1,417182116E2;-5,751796067E-2;5,727580190E-2;-5,789089203E-2
1,418182116E2;-4,133797809E-2;1,806074381E-2;3,859519958E-2
1,419182116E2;-1,077384800E-1;6,519559026E-2;1,153688431E-1
1,420182116E2;-2,590140700E-2;8,301284909E-2;1,179733276E-1
1,421182116E2;3,589422628E-2;-2,884221077E-2;1,191368103E-1
1,422182116E2;1,572522819E-1;5,777508020E-2;-5,425453186E-3
1,423182116E2;1,413700134E-1;6,257298589E-2;-9,868431091E-2
1,424182116E2;1,533736140E-1;8,388611674E-2;-5,844306946E-2
1,425182116E2;1,616093367E-1;4,845982790E-2;-2,616491318E-1
1,426182116E2;1,498132795E-1;2,392670512E-2;-1,892261505E-1
1,427182116E2;1,018784121E-1;-1,043146849E-2;-1,080112457E-1
1,428182116E2;1,171750873E-1;6,293058395E-3;3,299331665E-2
1,429182116E2;8,045679331E-2;5,688592792E-2;1,005468369E-1
1,430182116E2;9,035467356E-2;5,249628425E-2;1,097888947E-1
1,431182116E2;5,644819699E-3;5,495744944E-2;-7,569789886E-2
1,432182116E2;3,899104148E-2;2,035236359E-2;-8,076763153E-2
1,433182116E2;-7,039827108E-2;8,950048685E-2;3,789901733E-3
1,434182116E2;-8,857980371E-2;6,822213531E-2;-4,113197327E-2
1,435182116E2;-9,713746607E-2;1,815059781E-2;-2,000427246E-2
1,436182116E2;-1,132204682E-1;4,861491919E-2;8,149242401E-2
1,437182116E2;-6,865072250E-2;6,401568651E-2;2,092504501E-1
1,438182116E2;-2,636509389E-2;1,562151015E-1;2,725811005E-1
1,439182116E2;-3,167123348E-2;3,458949924E-2;1,196966171E-1
1,440182116E2;5,933066830E-2;3,661364317E-3;-9,092903137E-2
1,441182116E2;1,005037874E-1;6,361696124E-2;-1,595602036E-1
1,442182116E2;1,238960922E-1;-4,025846720E-3;-2,689943314E-1
1,443182116E2;-2,849515975E-1;3,556345999E-1;6,035480499E-1
1,444182116E2;1,061581913E-2;-2,488118410E-2;-6,853866577E-2
1,445182116E2;1,284575462E-1;-1,683840156E-2;-3,901767731E-2
1,446182116E2;6,915981323E-2;3,435364366E-2;1,365842819E-1
1,447182116E2;1,376911849E-1;3,680408001E-3;-3,530025482E-2
1,448182116E2;1,727962643E-1;5,699402094E-2;-1,453905106E-1
1,449182116E2;8,918362111E-2;-2,537459135E-3;-2,934255600E-1
1,450182116E2;7,944266498E-2;7,370972633E-2;-2,046403885E-1
1,451182116E2;1,404173523E-1;1,449262500E-1;3,618545532E-1
1,452182116E2;1,838633791E-3;9,993016720E-2;1,888952255E-1
1,453182116E2;-5,145500228E-2;5,540576577E-2;1,090536118E-1
1,454182116E2;-5,700813606E-2;-5,339360237E-2;-3,113641739E-1
1,455182116E2;-6,181710586E-2;5,035281181E-3;-3,271789551E-1
1,456182116E2;1,136474311E-4;4,442092776E-2;-2,422084808E-1
1,457182116E2;-1,087061316E-2;6,908118725E-2;1,360034943E-2
1,458182116E2;-4,624783620E-2;3,437086940E-2;1,243019104E-1
1,459182116E2;-6,398259103E-2;8,734247088E-2;2,932367325E-1
1,460182116E2;3,051415831E-2;9,379673004E-2;2,520112991E-1
1,461182116E2;6,658699363E-2;7,170698047E-2;9,922313690E-2
1,462182116E2;4,592341185E-2;3,357198834E-2;-1,651372910E-1
1,463182116E2;4,051659256E-2;8,114266396E-2;-2,370376587E-1
1,464182116E2;1,060139239E-1;3,865736723E-2;-2,790184021E-1
1,465182116E2;9,582085907E-2;4,022213817E-2;-1,520767212E-1
1,466182116E2;1,102589741E-1;4,957294464E-2;1,597433090E-1
1,467182116E2;1,143209711E-1;6,785976887E-2;2,026538849E-1
1,468182116E2;8,484192193E-2;7,009088993E-2;1,391143799E-1
1,469182116E2;7,851397246E-2;6,423950195E-3;1,128721237E-1
1,470182116E2;5,897424743E-2;2,584305406E-2;-6,401062012E-2
1,471182116E2;8,496302366E-2;-1,102894545E-3;-2,186546326E-1
1,472182116E2;5,208970048E-3;2,801686525E-2;-2,215538025E-1
1,473182116E2;6,262178533E-3;3,935217857E-2;-1,932201385E-1
1,474182116E2;7,463771850E-3;4,618570209E-2;6,463718414E-2
1,475182116E2;-4,004216194E-2;5,990263820E-2;1,197605133E-1
1,476182116E2;-9,330993518E-3;8,863288164E-2;2,316598892E-1
1,477182116E2;2,319686115E-2;5,950900912E-2;1,264162064E-1
1,478182116E2;2,382181026E-2;1,042106748E-2;-2,819633484E-2
1,479182116E2;1,682970114E-2;3,193184733E-2;-1,862363815E-1
1,480182116E2;9,646639228E-6;4,537534714E-2;-2,444648743E-1
1,481182116E2;-4,866303876E-3;5,593085289E-2;-1,784143448E-1
1,482182116E2;1,506611425E-2;6,708452106E-2;-8,093833923E-2
1,483182116E2;3,479395062E-2;3,775939345E-2;1,304626465E-1
1,484182116E2;5,924687535E-2;4,326972365E-2;2,193851471E-1
1,485182116E2;4,345746711E-2;4,102331400E-2;2,076520920E-1
1,486182116E2;9,089989215E-2;7,647839189E-2;1,452331543E-1
1,487182116E2;1,086959094E-1;7,980576158E-2;8,114814758E-3
1,488182116E2;1,523197442E-1;7,379719615E-2;-1,403474808E-1
1,489182116E2;1,344525516E-1;5,464842916E-2;-1,778888702E-1
1,490182116E2;1,315081120E-1;2,090623975E-2;-1,841411591E-1
1,491182116E2;4,096617922E-2;7,782429457E-3;-7,849311829E-2
1,492182116E2;3,395770863E-2;8,690059185E-4;3,396892548E-2
1,493182116E2;-1,282893028E-2;-5,381345749E-3;1,112146378E-1
1,494182116E2;-1,745548099E-3;4,139053822E-2;1,344461441E-1
1,495182116E2;1,153875235E-2;8,488541842E-2;1,352167130E-1
1,496182116E2;3,257729486E-2;6,700387597E-2;4,512405396E-2
1,497182116E2;1,403128169E-2;6,691613793E-2;-5,881118774E-2
1,498182116E2;-5,326751620E-3;5,539035797E-2;-1,011075974E-1
1,499182116E2;-1,242839918E-2;5,901160836E-2;-1,361150742E-1
1,500182116E2;-7,812079042E-3;3,594011068E-2;-7,183456421E-2
1,501182116E2;-5,126048252E-2;3,660336137E-2;1,191234589E-1
1,502182116E2;-8,139528334E-3;4,772132635E-2;3,153800964E-1
1,503182116E2;-7,285896689E-3;6,577599049E-2;2,470226288E-1
1,504182116E2;4,874767363E-2;2,097716928E-2;5,519390106E-2
1,505182116E2;6,909599900E-2;4,508683085E-2;-5,094528198E-3
1,506182116E2;6,746931374E-2;4,220232368E-2;-2,077331543E-1
1,507182116E2;5,346474797E-2;1,120504737E-2;-2,748146057E-1
1,508182116E2;6,963640451E-2;-2,849057317E-2;-1,501331329E-1
1,509182116E2;6,277595460E-2;1,810947061E-2;-9,909057617E-2
1,510182116E2;1,198234707E-1;1,609116793E-2;9,552574158E-2
1,511182116E2;1,122510582E-1;7,853084803E-2;2,454652786E-1
1,512182116E2;1,633649468E-1;7,010456920E-2;2,952213287E-1
1,513182116E2;1,471972018E-1;1,166746914E-1;2,532882690E-1
1,514182116E2;5,140570924E-3;2,549123764E-2;-3,624010086E-1
1,515182116E2;1,531264465E-2;-3,968387842E-3;-4,340486526E-1
1,516182116E2;-9,286826849E-2;6,525030732E-2;-1,533508301E-1
1,517182116E2;-5,886142701E-2;5,667823553E-2;-5,275249481E-2
1,518182116E2;3,279333189E-2;5,578812957E-2;2,374839783E-1
1,519182116E2;6,513203681E-2;2,803844213E-2;3,621501923E-1
1,520182116E2;4,762970656E-2;8,549639583E-2;2,200250626E-1
1,521182116E2;3,344782442E-2;7,646289468E-2;9,275436401E-3
1,522182116E2;4,278411344E-2;4,328355193E-2;-2,380743027E-1
1,523182116E2;3,529473767E-2;4,813790321E-3;-2,819099426E-1
1,524182116E2;1,336964406E-2;4,873919487E-2;-9,035015106E-2
1,525182116E2;-5,153767020E-2;4,223093390E-2;-9,901046753E-3
1,526182116E2;1,374424063E-2;6,184390187E-2;1,466617584E-1
1,527182116E2;7,609657943E-2;5,229747295E-2;1,595668793E-1
1,528182116E2;9,958747029E-2;8,155706525E-2;8,063697815E-2
1,529182116E2;8,293767273E-2;6,212121248E-2;-1,717100143E-1
1,530182116E2;8,779384196E-2;1,689586043E-2;-2,907247543E-1
1,531182116E2;6,458733976E-2;3,230834007E-2;-7,623767853E-2
1,532182116E2;4,024132341E-2;7,217755914E-2;4,764270782E-2
1,533182116E2;2,901261859E-2;3,869158030E-2;1,703739166E-1
1,534182116E2;5,031215400E-2;8,892184496E-2;3,443336487E-2
1,535182116E2;9,092234075E-2;3,739100695E-2;-7,259654999E-2
1,536182116E2;1,637712866E-2;4,607155919E-2;-2,318372726E-1
1,537182116E2;1,289418787E-1;1,516348124E-2;-1,875829697E-1
1,538182116E2;1,515587047E-2;3,065645695E-2;-1,998825073E-1
1,539182116E2;-2,342816815E-2;1,816120744E-2;-8,508014679E-2
1,540182116E2;-5,382546410E-2;5,875238776E-2;-7,404708862E-2
1,541182116E2;-2,462539077E-2;7,846486568E-2;4,693222046E-2
1,542182116E2;-3,670663759E-2;7,038605213E-2;-2,657890320E-2
1,543182116E2;-3,800390288E-2;4,302433133E-2;-1,292924881E-1
1,544182116E2;-3,820450976E-2;3,678700328E-2;-2,041616440E-1
1,545182116E2;7,499270886E-2;7,560661435E-2;-9,337234497E-2
1,546182116E2;1,638615131E-1;7,585248351E-2;1,129417419E-1
1,547182116E2;2,361348867E-1;1,345115006E-1;1,561794281E-1
1,548182116E2;3,128156364E-1;1,315140426E-1;3,379993439E-1
1,549182116E2;1,516646892E-1;1,161424220E-1;3,913125992E-1
1,550182116E2;1,106043011E-1;4,422971606E-2;2,506732941E-2
1,551182116E2;3,899278864E-2;4,364210367E-2;-2,345561981E-2
1,552182116E2;-8,636651933E-2;-1,408165693E-1;-1,028242111E0
1,553182116E2;-1,096671820E-1;-1,638814807E-1;-1,270251274E0
1,554182116E2;1,444059014E-1;-5,314388871E-2;-7,076454163E-1
1,555182116E2;1,406682730E-1;-6,353327632E-2;-1,849174500E-1
1,556182116E2;1,461200863E-1;1,968483031E-1;1,030625343E0
1,557182116E2;6,418008357E-2;2,142975181E-1;1,164138794E0
1,558182116E2;-2,548297867E-2;1,198139191E-1;2,657489777E-1
1,559182116E2;3,685888648E-2;9,044367075E-2;-2,132291794E-1
1,560182116E2;3,274914622E-2;1,038765758E-1;-8,705282211E-1
1,561182116E2;4,410290346E-2;1,136558652E-1;-8,018579483E-1
1,562182116E2;-1,191374436E-1;-9,831011295E-3;-3,812427521E-1
1,563182116E2;-2,134993076E-1;-7,244387269E-2;-7,580852509E-2
1,564182116E2;-2,978967428E-1;4,449814558E-3;5,746212006E-1
1,565182116E2;-2,234713137E-1;7,571223378E-2;6,657743454E-1
1,566182116E2;-6,560927629E-2;4,570317268E-2;3,049297333E-1
1,567182116E2;-1,565710455E-2;8,636698127E-2;1,113939285E-1
1,568182116E2;1,001751870E-1;4,652500153E-3;-4,019584656E-1
1,569182116E2;1,776152551E-1;-1,197612286E-2;-5,417776108E-1
1,570182116E2;1,516834497E-1;-1,559555531E-3;-5,483217239E-1
1,571182116E2;1,375500411E-1;3,177034855E-2;-3,426036835E-1
1,572182116E2;7,061388344E-2;7,270739973E-2;1,455488205E-1
1,573182116E2;6,480632722E-2;4,104030132E-2;2,400789261E-1
1,574182116E2;1,767194867E-1;4,041837156E-2;3,896474838E-1
1,575182116E2;1,685777903E-1;3,438192606E-2;1,926031113E-1
1,576182116E2;1,684490740E-1;8,336305618E-4;-2,818422318E-1
1,577182116E2;9,152985364E-2;2,996802330E-3;-4,307136536E-1
1,578182116E2;1,057017148E-1;-1,161962748E-2;-3,750886917E-1
1,579182116E2;9,998999536E-2;8,014337718E-2;-7,357788086E-2
1,580182116E2;8,907700330E-2;5,214363337E-2;1,921739578E-1
1,581182116E2;-7,212523371E-2;2,254846692E-2;1,799068451E-1
1,582182116E2;-1,550376415E-1;-1,735246181E-2;4,380512238E-2
1,583182116E2;-1,812064946E-1;-3,256753087E-2;9,077739716E-2
1,584182116E2;-1,677603424E-1;2,081444860E-2;6,507110596E-2
1,585182116E2;-3,415796906E-3;4,539579153E-2;7,964706421E-2
1,586182116E2;-1,932664588E-2;5,895361304E-2;6,372928619E-2
1,587182116E2;-8,653666824E-3;-1,537743211E-2;-1,000881195E-1
1,588182116E2;-3,475943580E-2;1,645088196E-5;-2,282581329E-1
1,589182116E2;2,364519238E-2;-1,250872016E-2;-2,562112808E-1
1,590182116E2;6,065046787E-2;-1,176461577E-2;-1,265153885E-1
1,591182116E2;6,589722633E-2;-7,594913244E-3;9,010982513E-2
1,592182116E2;1,100777388E-1;3,706693649E-3;1,711015701E-1
1,593182116E2;1,099172086E-1;2,005159855E-2;1,299533844E-1
1,594182116E2;1,164084375E-1;1,706182957E-4;5,321502686E-4
1,595182116E2;1,699925363E-1;1,658669114E-2;-1,377363205E-1
1,596182116E2;1,118004993E-1;-1,056730747E-2;-1,964626312E-1
1,597182116E2;7,026571780E-2;-2,408373356E-2;-2,270011902E-1
1,598182116E2;6,853644550E-2;-1,466763020E-2;-1,372623444E-1
1,599182116E2;5,291102082E-2;2,323837578E-2;5,788421631E-2
1,600182116E2;5,114337802E-2;2,974794805E-2;7,057571411E-2
1,601182116E2;-3,910765797E-2;-2,990990877E-3;2,705001831E-2
1,602182116E2;-5,012286454E-2;-2,277234197E-2;-3,227424622E-2
1,603182116E2;-1,712749526E-2;-1,932910085E-2;-2,389717102E-2
1,604182116E2;1,313105226E-2;1,523002982E-2;1,090240479E-2
1,605182116E2;-1,117824018E-2;7,102340460E-3;-3,582668304E-2
1,606182116E2;-5,484478176E-2;-1,064789295E-2;-4,433155060E-2
1,607182116E2;-9,300918132E-2;-3,325343132E-4;-5,512428284E-2
1,608182116E2;-3,217914701E-2;1,241001487E-2;-4,144954681E-2
1,609182116E2;-5,372617394E-3;-5,502998829E-4;-1,343631744E-2
1,610182116E2;6,778076291E-2;-1,065215468E-2;1,139030457E-1
1,611182116E2;5,990163982E-2;-1,714965701E-2;9,232902527E-2
1,612182116E2;9,224294126E-2;-2,832624316E-2;-2,896881104E-2
1,613182116E2;1,202715114E-1;-1,720267534E-2;-9,915447235E-2
1,614182116E2;8,432690054E-2;-3,374138474E-2;-2,296495438E-1
1,615182116E2;6,003235653E-2;-3,519633412E-2;-2,134532928E-1
1,616182116E2;1,749220863E-2;-1,738572121E-2;-6,912517548E-2
1,617182116E2;3,298950940E-2;-1,169741154E-2;-3,039932251E-2
1,618182116E2;7,402992994E-2;-1,853126287E-2;1,471805573E-2
1,619182116E2;9,905619919E-2;-2,856016159E-3;-2,610301971E-2
1,620182116E2;9,905619919E-2;-2,856016159E-3;-2,610301971E-2
1,621182116E2;5,387562513E-2;-3,329452872E-2;-1,208915710E-1
1,622182116E2;-5,940946750E-3;-9,183794260E-3;-1,708030701E-1
1,623182116E2;-8,303927258E-3;-2,519124746E-2;-1,742658615E-1
1,624182116E2;-7,741193473E-2;-2,214264870E-2;-8,291530609E-2
1,625182116E2;-7,956486940E-2;4,988685250E-3;3,997612000E-2
1,626182116E2;-6,690412015E-2;-1,864840090E-2;7,975769043E-2
1,627182116E2;-5,821114779E-2;-4,411654174E-2;-2,811241150E-2
1,628182116E2;-1,917226426E-2;-6,803558767E-2;-5,439949036E-2
1,629182116E2;2,227273881E-1;1,441010833E-2;1,148138046E-1
1,630182116E2;1,563136280E-1;5,978454649E-2;7,893943787E-2
1,631182116E2;9,185928106E-2;-2,245847881E-2;-1,917991638E-1
1,632182116E2;-1,215941831E-2;-4,278321564E-2;-3,364486694E-1
1,633182116E2;-6,197889894E-2;-8,852751553E-2;-7,914781570E-1
1,634182116E2;-8,605314791E-2;-8,342179656E-2;-5,519847870E-1
1,635182116E2;-6,973995268E-2;-3,802144527E-2;-9,082889557E-2
1,636182116E2;-1,017871052E-1;-1,097398251E-1;5,258531570E-1
1,637182116E2;-1,724911034E-1;1,412136555E-1;9,546031952E-1
1,638182116E2;8,717644960E-3;-3,800392151E-4;3,270988464E-1
1,639182116E2;1,124563813E-1;5,676899850E-2;-5,529212952E-1
1,640182116E2;1,555850208E-1;-5,160082877E-2;-7,105865479E-1
1,641182116E2;4,888340086E-2;-1,398716867E-2;-6,365394592E-1
1,642182116E2;1,089925915E-1;1,757591963E-3;-1,598577499E-1
1,643182116E2;-2,292214893E-3;-8,566308022E-2;3,830347061E-1
1,644182116E2;-4,612267390E-2;-3,020225465E-2;4,537439346E-1
1,645182116E2;-4,177565500E-2;-2,434274554E-2;2,720432281E-1
1,646182116E2;3,637405112E-2;-4,093289375E-3;2,363281250E-1
1,647182116E2;1,916363090E-1;-7,219944894E-2;-3,394460678E-1
1,648182116E2;1,894548833E-1;-5,183702707E-2;-4,953451157E-1
1,649182116E2;2,125597596E-1;-9,226176143E-2;-4,760084152E-1
1,650182116E2;1,625009626E-1;-9,370848536E-3;-1,383934021E-1
1,651182116E2;1,669725180E-1;-4,120637476E-2;4,602241516E-2
1,652182116E2;5,567935854E-2;-2,684128284E-2;2,406854630E-1
1,653182116E2;4,401482269E-2;-6,986480951E-2;2,614755630E-1
1,654182116E2;3,773970529E-2;-2,677695453E-2;2,084083557E-1
1,655182116E2;2,466983721E-2;-3,735138476E-2;-3,277778625E-2
1,656182116E2;-8,627328277E-2;-7,677148283E-2;-2,203693390E-1
1,657182116E2;-1,419657767E-1;-2,393525839E-2;-3,233280182E-1
1,658182116E2;-1,592838317E-1;-2,048869431E-2;-3,651618958E-3
1,659182116E2;-1,187800318E-1;3,920604289E-2;8,784961700E-2
1,660182116E2;-5,371027440E-2;8,572638035E-4;2,641754150E-1
1,661182116E2;-4,132007062E-2;-1,364263892E-2;1,710901260E-1
1,662182116E2;-5,343811959E-2;-9,094689786E-2;4,985141754E-2
1,663182116E2;-5,467661843E-2;-7,220891118E-2;2,295780182E-2
1,664182116E2;-3,894092888E-2;-6,328971684E-2;-4,499053955E-2
1,665182116E2;1,066992246E-2;-4,392889142E-2;-1,001281738E-1
1,666182116E2;-5,753283622E-4;-1,054666191E-1;-8,345794678E-2
1,667182116E2;5,496073887E-2;-1,185745001E-3;1,458768845E-1
1,668182116E2;6,273968518E-2;-5,825854838E-2;5,364894867E-2
1,669182116E2;5,736169219E-2;-6,864964962E-5;9,516716003E-2
1,670182116E2;3,671623766E-2;-3,643523157E-2;2,825927734E-2
1,671182116E2;5,166014284E-2;-7,243822515E-2;-5,834674835E-2
1,672182116E2;5,430745706E-2;-1,309776306E-2;-6,058025360E-2
1,673182116E2;4,454912990E-2;-1,112693995E-1;-1,615047455E-2
1,674182116E2;-8,582530543E-3;-7,746857405E-2;-3,175926208E-2
1,675182116E2;-3,659626842E-2;-2,424745262E-2;7,507324219E-3
1,676182116E2;-4,202790931E-2;-5,068805814E-2;7,105255127E-2
1,677182116E2;1,940137520E-2;-2,561601996E-2;1,790285110E-1
1,678182116E2;4,032102600E-2;-1,106369495E-2;1,595983505E-1
1,679182116E2;2,872865833E-2;-4,171547294E-2;9,105682373E-2
1,680182116E2;-1,896450296E-3;-1,126573980E-2;5,413627625E-2
1,681182116E2;2,150129899E-2;-5,500318110E-2;-8,611679077E-4
1,682182116E2;4,234742373E-4;-4,924766719E-2;-3,763484955E-2
1,683182116E2;-2,430840582E-2;-1,031478196E-1;-2,311849594E-1
1,684182116E2;8,129313588E-3;-5,916115642E-2;-2,273664474E-1
1,685182116E2;-3,268689662E-2;-1,020758450E-1;-9,067821503E-2
1,686182116E2;-8,718490601E-3;-7,678063214E-2;-4,142665863E-2
1,687182116E2;2,188043296E-2;-9,385937452E-2;-2,445173264E-1
1,688182116E2;2,900982834E-2;-3,616358340E-2;-4,140462875E-1
1,689182116E2;6,425272673E-3;1,730336249E-2;2,685937881E-1
1,690182116E2;-5,886359513E-2;1,162031442E-1;6,146087646E-1
1,691182116E2;-1,083575860E-1;7,684679329E-2;4,116640091E-1
1,692182116E2;-1,431323141E-1;-4,245427251E-2;1,000432968E-1
1,693182116E2;-1,400128752E-1;-5,544003844E-2;-2,311077118E-1
1,694182116E2;-2,768930793E-2;4,518187046E-2;-1,207284927E-1
1,695182116E2;1,363250464E-1;-3,584057093E-3;1,465177536E-1
1,696182116E2;8,282794803E-2;-1,178189814E-1;-1,705837250E-2
1,697182116E2;3,528474644E-2;-1,660880148E-1;-2,124195099E-1
1,698182116E2;-8,097391576E-3;-7,623881102E-2;-2,815504074E-1
1,699182116E2;-5,508244038E-3;-6,691530347E-2;-8,071517944E-2
1,700182116E2;5,556963757E-2;-1,148757935E-1;3,807163239E-2
1,701182116E2;3,385172039E-2;-6,537199020E-3;-3,316688538E-1
1,702182116E2;1,069616377E-1;-3,136269748E-2;-3,396434784E-1
1,703182116E2;1,462828666E-1;3,864954412E-2;3,084850311E-2
1,704182116E2;1,286461651E-1;1,143896133E-1;5,480623245E-1
1,705182116E2;8,547437191E-2;8,730880916E-2;4,958314896E-1
1,706182116E2;4,143671691E-2;-5,468468368E-2;1,684694290E-1
1,707182116E2;-2,672800049E-2;-4,570499063E-2;-1,020050049E-1
1,708182116E2;-1,480052024E-1;-1,481554508E-1;-4,819135666E-1
1,709182116E2;-1,016676947E-1;-5,439940095E-2;-5,611047745E-1
1,710182116E2;-1,168113425E-1;-1,321035922E-1;-2,896108627E-1
1,711182116E2;-1,096932143E-1;-6,747311354E-2;2,423372269E-1
1,712182116E2;-1,208692603E-2;1,540935636E-1;9,324684143E-1
1,713182116E2;2,275867388E-2;9,328147769E-2;5,107288361E-1
1,714182116E2;7,364702225E-2;5,733430386E-3;-6,400012970E-2
1,715182116E2;1,650415361E-2;-8,971631527E-2;-6,036996841E-1
1,716182116E2;3,204826266E-2;-9,735685587E-2;-8,229188919E-1
1,717182116E2;-1,869620942E-2;-3,324380517E-2;-6,648101807E-1
1,718182116E2;1,181862317E-2;-3,801277280E-2;2,207565308E-2
1,719182116E2;-3,005301021E-2;3,623740375E-2;4,045715332E-1
1,720182116E2;5,273142457E-2;2,642469108E-2;5,472812653E-1
1,721182116E2;2,981456369E-2;8,604738116E-2;4,123277664E-1
1,722182116E2;5,910544470E-2;-3,219145536E-2;-1,691465378E-1
1,723182116E2;5,849368125E-2;-1,406714320E-2;-3,417520523E-1
1,724182116E2;1,362920180E-2;-4,912981391E-2;-3,682823181E-1
1,725182116E2;-1,264683343E-2;-3,453034163E-2;-1,242761612E-1
1,726182116E2;-8,023433387E-2;1,297488809E-3;2,602767944E-2
1,727182116E2;-5,719825625E-2;5,046644807E-2;2,738447189E-1
1,728182116E2;-8,484265208E-2;-2,868515253E-2;3,132734299E-1
1,729182116E2;-3,274871036E-2;-5,748048425E-2;1,017446518E-1
1,730182116E2;-1,306970883E-2;-6,308382750E-2;2,970790863E-2
1,731182116E2;1,668789424E-2;-4,870152473E-2;-1,492557526E-1
1,732182116E2;2,272000536E-2;1,056447625E-2;-2,056064606E-1
1,733182116E2;4,053998366E-2;2,521100640E-2;-2,403402328E-1
1,734182116E2;5,490938947E-2;2,130794525E-2;-1,458225250E-1
1,735182116E2;6,124254316E-2;9,106010199E-3;1,388835907E-2
1,736182116E2;7,041995972E-2;-1,037490368E-2;9,395408630E-2
1,737182116E2;7,897078991E-2;-4,621219635E-2;1,106081009E-1
1,738182116E2;3,727747127E-2;-5,263844132E-2;1,116189957E-1
1,739182116E2;3,495953605E-2;-2,837014198E-2;4,550552368E-2
1,740182116E2;2,461845428E-2;-2,663764358E-2;-7,911396027E-2
1,741182116E2;-2,267115191E-2;-4,185998440E-2;-2,476062775E-1
1,742182116E2;-2,095536143E-2;6,138175726E-3;-2,935104370E-1
1,743182116E2;4,398673773E-3;2,070650458E-3;-1,328840256E-1
1,744182116E2;2,950454131E-3;7,783472538E-4;-5,880355835E-3
1,745182116E2;-1,248098072E-2;3,566965461E-3;2,061424255E-1
1,746182116E2;-1,969117671E-2;-3,747418523E-2;2,509212494E-1
1,747182116E2;-5,085203797E-2;5,397647619E-4;1,393747330E-1
1,748182116E2;-5,576629192E-2;2,602845430E-3;-2,282047272E-2
1,749182116E2;-3,304706514E-2;2,675250173E-3;-1,928377151E-1
1,750182116E2;3,155503049E-2;-1,888412237E-2;-1,986379623E-1
1,751182116E2;3,099672496E-2;-2,099815011E-2;-1,416921616E-1
1,752182116E2;1,262308098E-2;-2,573874593E-2;8,133792877E-2
1,753182116E2;-6,236728281E-3;-5,899742246E-3;1,754293442E-1
1,754182116E2;1,719537750E-2;-9,926378727E-3;1,874761581E-1
1,755182116E2;1,388707384E-2;-3,893241286E-2;1,136817932E-1
1,756182116E2;-1,463931426E-2;-5,860939622E-2;-6,789588928E-2
1,757182116E2;3,743974492E-2;-4,982554913E-2;-1,841516495E-1
1,758182116E2;4,676114023E-2;-6,329730153E-2;-2,718181610E-1
1,759182116E2;-2,794526517E-3;2,592617273E-2;-2,079544067E-1
1,760182116E2;2,971173637E-2;1,817108691E-2;3,974437714E-2
1,761182116E2;-1,933693141E-2;3,172227740E-2;1,209173203E-1
1,762182116E2;-2,837306634E-2;4,184514284E-3;2,045602798E-1
1,763182116E2;-1,377127040E-2;9,394511580E-3;2,032537460E-1
1,764182116E2;-4,882466793E-2;3,528572619E-2;5,907726288E-2
1,765182116E2;-4,477655143E-2;-7,495069504E-2;-1,161193848E-1
1,766182116E2;-7,156277448E-2;-4,983672500E-2;-6,415367126E-2
1,767182116E2;-4,943851382E-2;-3,399410844E-2;-3,009757996E-1
1,768182116E2;3,833247349E-2;-4,221469164E-2;-1,523313522E-1
1,769182116E2;2,760222182E-2;1,315090060E-2;4,305076599E-2
1,770182116E2;5,848824978E-3;-2,727255225E-2;4,236125946E-2
1,771182116E2;1,890855655E-2;-3,883272409E-2;1,719093323E-2
1,772182116E2;3,117334470E-2;-5,892926455E-2;3,711700439E-2
1,773182116E2;2,548498660E-2;-3,477215767E-3;-2,877235413E-3
1,774182116E2;3,785426170E-2;-1,708754897E-2;-5,868339539E-2
1,775182116E2;-9,318552911E-3;-1,303902268E-2;-1,594705582E-1
1,776182116E2;5,243681371E-4;6,207495928E-3;-9,899902344E-2
1,777182116E2;4,283428192E-3;-2,347654104E-2;-1,148080826E-1
1,778182116E2;-2,722598426E-2;-7,050484419E-3;3,496932983E-2
1,779182116E2;-5,102492869E-4;-3,307035565E-2;1,350183487E-1
1,780182116E2;-1,292373054E-2;-1,037961245E-2;1,308078766E-1
1,781182116E2;-3,700092435E-3;-2,605003119E-2;1,771831512E-2
1,782182116E2;-5,599932745E-2;1,038444042E-2;3,284358978E-2
1,783182116E2;-5,585628003E-2;1,450806856E-3;-8,677482605E-2
1,784182116E2;-3,464922681E-2;-3,625068069E-2;-9,505271912E-2
1,785182116E2;-3,468563035E-2;-2,616384625E-2;1,737689972E-2
1,786182116E2;9,887237102E-3;-1,033821702E-2;-1,823902130E-2
1,787182116E2;6,668790430E-2;-2,685719728E-2;-5,747699738E-2
1,788182116E2;5,006234348E-2;-3,288918734E-2;-1,814842224E-2
1,789182116E2;7,063788176E-2;4,115149379E-3;5,894470215E-2
1,790182116E2;6,174185127E-2;-2,093529701E-2;3,247737885E-2
1,791182116E2;4,444830865E-2;-6,017446518E-3;9,751892090E-2
1,792182116E2;1,750998199E-2;2,696433663E-2;8,437156677E-2
1,793182116E2;2,911979333E-2;-7,764071226E-3;-5,704498291E-2
1,794182116E2;2,302123979E-2;-1,262566447E-2;-1,255741119E-1
1,795182116E2;3,356762230E-3;-1,985964179E-2;-1,756391525E-1
1,796182116E2;-1,259746589E-2;-4,969915748E-2;-6,625175476E-2
1,797182116E2;1,137414947E-2;-5,352708697E-2;-6,270599365E-2
1,798182116E2;9,771732613E-3;-2,991527319E-2;3,911018372E-2
1,799182116E2;-1,582205482E-2;6,084710360E-3;8,670711517E-2
1,800182116E2;-9,849720635E-3;3,431630135E-2;1,047868729E-1
1,801182116E2;-3,634747118E-2;5,961239338E-3;3,946781158E-2
1,802182116E2;-6,181789935E-2;1,219052076E-2;-3,324794769E-2
1,803182116E2;-5,724081025E-2;-2,422806621E-2;-1,113729477E-1
1,804182116E2;-4,745879024E-2;-2,740892768E-2;-1,817388535E-1
1,805182116E2;-3,157636896E-2;-3,714790940E-2;-8,683967590E-2
1,806182116E2;-6,122710183E-3;-2,476572990E-4;7,046413422E-2
1,807182116E2;2,848728374E-2;-8,365094662E-3;1,575984955E-1
1,808182116E2;7,731953263E-2;-5,823045969E-3;1,118040085E-1
1,809182116E2;8,303977549E-2;-1,099675894E-3;5,150794983E-2
1,810182116E2;8,368045092E-2;-1,157775521E-2;-6,838703156E-2
1,811182116E2;9,892368317E-2;1,779563725E-2;-8,043289185E-3
1,812182116E2;6,678502262E-2;-1,414176822E-2;-1,401958466E-1
1,813182116E2;6,061661243E-2;-4,046675563E-2;-1,065492630E-1
1,814182116E2;1,363872737E-2;-1,111391187E-2;-7,802009583E-2
1,815182116E2;-4,753559828E-3;-2,296489477E-2;-2,121067047E-2
1,816182116E2;7,538619637E-2;2,660164237E-2;1,698789597E-1
1,817182116E2;4,053239152E-2;-2,974337339E-2;2,001085281E-1
1,818182116E2;-1,928469911E-2;-4,418587685E-2;-1,350412369E-1
1,819182116E2;-4,921937734E-2;-5,431327224E-2;-1,860742569E-1
1,820182116E2;-3,416031972E-2;-2,360045910E-2;-1,293439865E-1
1,821182116E2;-1,439429522E-1;1,444384456E-2;-1,121311188E-1
1,822182116E2;-9,468282759E-2;-1,952052116E-5;9,246921539E-2
1,823182116E2;-1,112090796E-1;3,654152155E-3;9,652519226E-2
1,824182116E2;-1,048648283E-1;-4,036939144E-2;-1,848793030E-2
1,825182116E2;-1,067331657E-1;3,099273145E-2;1,317968369E-1
1,826182116E2;-8,270990849E-2;-4,393815994E-3;6,604385376E-2
1,827182116E2;-3,604221344E-2;6,046727300E-3;8,392143250E-2
1,828182116E2;1,851784997E-2;-8,141234517E-3;5,872344971E-2
1,829182116E2;2,807057649E-2;2,104818821E-2;-1,233873367E-1
1,830182116E2;3,001415730E-2;-1,230281591E-2;-1,573934555E-1
1,831182116E2;4,758136347E-2;-8,145123720E-3;-1,290531158E-1
1,832182116E2;8,798593283E-2;-5,434089899E-2;1,014232635E-2
1,833182116E2;-1,114348322E-2;-1,219955087E-2;1,497411728E-1
1,834182116E2;1,239727736E-1;7,372632623E-3;2,553033829E-1
1,835182116E2;1,172679514E-1;2,627214789E-2;8,676719666E-2
1,836182116E2;9,003098309E-2;-1,343014836E-2;-7,539367676E-2
1,837182116E2;6,356679648E-2;-2,523529530E-2;-1,303672791E-1
1,838182116E2;5,239593983E-2;-1,512944698E-2;-2,400999069E-1
1,839182116E2;2,871594951E-2;-1,240310073E-2;-7,168674469E-2
1,840182116E2;1,791566983E-2;-3,127536178E-2;7,822895050E-2
1,841182116E2;4,618905485E-2;2,007338405E-2;2,222795486E-1
1,842182116E2;-3,552522510E-3;1,122479141E-2;1,830959320E-1
1,843182116E2;-1,224634610E-2;-2,408090234E-2;-2,259445190E-2
1,844182116E2;-6,808397919E-2;-4,446250200E-2;-1,422109604E-1
1,845182116E2;-8,746656030E-2;-7,217094302E-2;2,488136292E-3
1,846182116E2;-1,857716292E-1;7,210373878E-2;-2,596511841E-1
1,847182116E2;-1,911936328E-2;2,319236100E-2;1,547422409E-1
1,848182116E2;9,125161916E-2;1,255432367E-1;3,432378769E-1
1,849182116E2;9,734788537E-2;3,359284997E-2;2,003421783E-1
1,850182116E2;-5,790114403E-2;-4,379194975E-2;-1,022071838E-1
1,851182116E2;-3,682303056E-2;-9,820193052E-2;-2,668418884E-1
1,852182116E2;-7,922182977E-2;-5,198958516E-2;-2,886190414E-1
1,853182116E2;-2,038432285E-2;-6,760486960E-2;-1,677942276E-1
1,854182116E2;5,120896176E-2;-4,741019011E-2;1,835775375E-1
1,855182116E2;4,394157976E-2;6,612989306E-2;-7,903671265E-2
1,856182116E2;5,238185450E-2;1,402336359E-2;2,677021027E-1
1,857182116E2;-7,685972005E-2;1,156477630E-1;2,156486511E-1
1,858182116E2;5,151756480E-2;2,942271531E-2;-3,376007080E-4
1,859182116E2;7,894055545E-2;-3,338766098E-2;-2,053585052E-1
1,860182116E2;1,057381928E-2;-3,124395013E-2;-2,640657425E-1
1,861182116E2;-7,611633278E-3;-2,555784583E-2;-1,998519897E-1
1,862182116E2;-1,034578755E-1;-6,560963392E-2;-1,111888885E-2
1,863182116E2;-1,117570177E-1;6,100299954E-2;9,164714813E-2
1,864182116E2;-3,018335626E-2;9,877245128E-2;2,103948593E-1
1,865182116E2;-3,519182093E-3;1,134698093E-2;3,291196823E-1
1,866182116E2;-1,036228333E-2;-1,974552870E-3;8,764266968E-4
1,867182116E2;6,186006591E-3;-1,749712229E-2;-1,646156311E-1
1,868182116E2;4,893172532E-3;-3,494313359E-2;-2,813587189E-1
1,869182116E2;-3,248083964E-2;-3,762000799E-2;-1,929931641E-1
1,870182116E2;-4,750552028E-2;-3,904777765E-2;-6,369304657E-2
1,871182116E2;4,411185533E-2;5,354332924E-2;2,924070358E-1
1,872182116E2;3,698165342E-2;1,131517142E-1;3,284215927E-1
1,873182116E2;6,026576459E-2;-4,865932465E-2;2,064437866E-1
1,874182116E2;-1,377590001E-3;-7,436209917E-2;-6,691646576E-2
1,875182116E2;-3,263990954E-2;-2,545070648E-2;-2,279386520E-1
1,876182116E2;2,045036480E-2;-4,846164584E-2;-2,525949478E-1
1,877182116E2;3,060428798E-2;-3,908836842E-2;-1,927709579E-1
1,878182116E2;5,332425982E-2;1,659175754E-2;-7,519054413E-2
1,879182116E2;8,491751552E-2;8,000105619E-2;1,517400742E-1
1,880182116E2;5,863615498E-2;-1,537102461E-2;7,234954834E-2
1,881182116E2;-2,853576094E-3;-1,708632708E-2;9,938812256E-2
1,882182116E2;-1,138035208E-3;-3,008008003E-2;1,259326935E-2
1,883182116E2;-7,273671031E-2;-2,373567224E-2;-1,798486710E-1
1,884182116E2;-3,842269070E-3;-9,010434151E-3;3,220558167E-3
1,885182116E2;-3,667907417E-2;-2,036291361E-2;3,743839264E-2
1,886182116E2;-2,334456891E-2;7,037355006E-2;7,588100433E-2
1,887182116E2;-6,669611484E-2;-3,882318735E-3;5,362415314E-2
1,888182116E2;-3,466613218E-2;4,400014877E-4;-7,671356201E-3
1,889182116E2;-4,104929417E-2;-1,192814112E-2;-2,009086609E-1
1,890182116E2;-2,414617874E-2;-5,997863412E-2;-1,158752441E-1
1,891182116E2;3,108935803E-2;1,419019699E-2;-2,444114685E-1
1,892182116E2;8,527330309E-2;-6,577967107E-2;2,750234604E-1
1,893182116E2;1,017105728E-1;4,730829597E-2;2,763853073E-1
1,894182116E2;7,876828313E-2;5,527022481E-2;4,001789093E-1
1,895182116E2;1,027138829E-1;4,104581475E-2;6,097412109E-2
1,896182116E2;1,043438315E-1;-9,192970395E-2;-4,231672287E-1
1,897182116E2;3,090459481E-2;-1,378002167E-1;-5,703477859E-1
1,898182116E2;1,541873626E-2;-1,255860925E-1;-5,450706482E-1
1,899182116E2;-7,319211960E-2;-8,491021395E-2;-3,698348999E-2
1,900182116E2;1,844467968E-2;7,018291950E-2;7,975511551E-1
1,901182116E2;-3,011072055E-2;1,670328081E-1;7,706947327E-1
1,902182116E2;-1,026023403E-1;9,473706782E-2;9,688568115E-2
1,903182116E2;-7,332923263E-2;-3,172093630E-2;-2,513599396E-1
1,904182116E2;-2,834289335E-2;-4,355263710E-2;-5,860300064E-1
1,905182116E2;3,231662139E-2;-9,062924981E-2;-5,218305588E-1
1,906182116E2;1,339354552E-2;-8,795878291E-2;-3,872489929E-2
1,907182116E2;3,611641750E-2;-2,665603161E-2;2,293386459E-1
1,908182116E2;-6,687984616E-2;5,503229797E-2;3,977842331E-1
1,909182116E2;-1,466648877E-1;5,070270598E-2;4,032821655E-1
1,910182116E2;-2,472619899E-2;5,837555230E-2;1,371107101E-1
1,911182116E2;-7,559839636E-2;-2,480089664E-2;6,403923035E-3
1,912182116E2;3,804797679E-2;-6,825885177E-2;-2,996587753E-1
1,913182116E2;3,384127468E-2;-4,437181354E-2;-4,788808823E-1
1,914182116E2;1,506627798E-1;1,326999068E-2;-1,507768631E-1
1,915182116E2;8,558949083E-2;2,759942412E-2;-8,564949036E-3
1,916182116E2;4,082772508E-2;8,394315839E-3;2,481794357E-1
1,917182116E2;-1,721772179E-2;-1,038163900E-3;2,766513824E-1
1,918182116E2;-3,237828612E-3;-1,171094179E-2;1,377849579E-1
1,919182116E2;3,019407764E-2;1,534011960E-2;3,307533264E-2
1,920182116E2;9,869851172E-3;-2,227085829E-2;-2,147312164E-1
1,921182116E2;7,812604308E-3;-3,436306119E-2;-2,863216400E-1
1,922182116E2;4,809645191E-2;-1,801303029E-2;-3,422317505E-1
1,923182116E2;4,616128653E-2;1,052528620E-3;-1,835861206E-1
1,924182116E2;5,591019988E-2;5,864650011E-3;1,533203125E-1
1,925182116E2;-3,824424744E-2;-1,809403300E-2;2,784862518E-1
1,926182116E2;-1,131826565E-1;2,409926057E-2;2,194910049E-1
1,927182116E2;-6,418922544E-2;3,162643313E-2;1,950798035E-1
1,928182116E2;-7,280418277E-2;2,105075121E-2;-4,670429230E-2
1,929182116E2;-1,093892679E-1;1,164996624E-2;-2,942037582E-1
1,930182116E2;-6,980980188E-2;-2,386903763E-2;-2,954730988E-1
1,931182116E2;-5,758345872E-2;3,413775563E-2;-7,835769653E-2
1,932182116E2;-1,443203725E-2;9,297877550E-3;2,427196503E-2
1,933182116E2;2,947368287E-2;-2,853047848E-2;-1,279916763E-1
1,934182116E2;6,444305182E-2;1,802942157E-2;2,633523941E-1
1,935182116E2;-1,550198719E-2;1,260130107E-1;4,113025665E-1
1,936182116E2;9,994160384E-3;-4,578292370E-2;1,242542267E-1
1,937182116E2;3,165965900E-2;-3,131461143E-2;-2,230205536E-1
1,938182116E2;4,715131223E-2;-2,464115620E-2;-6,668128967E-1
1,939182116E2;-2,685580775E-2;2,067683637E-2;-3,433427811E-1
1,940182116E2;6,423071027E-2;-1,107312739E-1;-1,814718246E-1
1,941182116E2;7,566303015E-2;-6,416812539E-2;1,091861725E-1
1,942182116E2;4,320145398E-2;-2,171695232E-4;-4,952049255E-2
1,943182116E2;3,035821021E-2;1,114098653E-1;6,801691055E-1
1,944182116E2;3,059103154E-2;2,121792734E-1;9,469099045E-1
1,945182116E2;9,128199890E-3;-7,742401958E-2;1,143531799E-1
1,946182116E2;-3,923788667E-2;8,360102773E-3;-2,203578949E-1
1,947182116E2;-1,817314699E-2;-7,037246227E-2;-6,864604950E-1
1,948182116E2;-1,004205644E-2;-1,313669086E-1;-4,366903305E-1
1,949182116E2;5,831119418E-2;-1,532019973E-1;-4,584503174E-2
1,950182116E2;5,997669697E-2;6,250347197E-2;6,685066223E-1
1,951182116E2;1,095648333E-1;2,772070467E-2;6,623344421E-1
1,952182116E2;6,905467808E-2;-3,324809670E-2;3,065319061E-1
1,953182116E2;8,515390009E-2;-3,852289915E-2;-2,618169785E-1
1,954182116E2;5,212524533E-2;-5,461141467E-2;-7,331562042E-1
1,955182116E2;9,323861450E-2;-7,525780797E-2;-7,255239487E-1
1,956182116E2;8,902049065E-2;-7,716722786E-2;-2,907466888E-1
1,957182116E2;3,035977110E-2;-7,312491536E-3;-1,951980591E-2
1,958182116E2;2,958093211E-2;7,918274403E-2;6,296548843E-1
1,959182116E2;-3,826058656E-2;1,006755382E-1;6,956939697E-1
1,960182116E2;-9,919372946E-2;1,305371523E-2;2,467126846E-1
1,961182116E2;-1,028647050E-1;-8,881941438E-3;-9,902858734E-2
1,962182116E2;-9,797355533E-2;-2,376532555E-2;-5,273227692E-1
1,963182116E2;-8,701863140E-2;-5,887609720E-2;-4,948043823E-1
1,964182116E2;-8,453977108E-2;-9,740263224E-3;-1,349725723E-1
1,965182116E2;-4,941759259E-2;-2,793832123E-2;8,887672424E-2
1,966182116E2;-8,797878027E-2;6,234006584E-2;4,060668945E-1
1,967182116E2;-6,601762027E-2;1,101574302E-2;3,769435883E-1
1,968182116E2;-7,766167819E-2;6,135016680E-3;2,095365524E-1
1,969182116E2;-1,119856760E-1;-2,380110323E-2;1,622009277E-2
1,970182116E2;5,827359855E-2;4,648976028E-2;-1,764297485E-4
1,971182116E2;8,146361262E-2;3,567278385E-3;-2,273178101E-2
1,972182116E2;1,436054707E-1;-3,214091063E-2;-5,905151367E-2
1,973182116E2;1,079104468E-1;-7,200583816E-2;1,059274673E-1
1,974182116E2;6,686361134E-2;3,749053180E-2;8,689403534E-2
1,975182116E2;5,807386339E-2;-6,961393356E-2;9,102725983E-2
1,976182116E2;2,658883482E-2;-9,876483679E-2;1,674013138E-1
1,977182116E2;6,544205546E-2;-9,080529213E-2;2,228660583E-1
1,978182116E2;5,672919005E-2;1,519460082E-1;2,070903778E-1
1,979182116E2;1,630309373E-1;1,288937479E-1;6,367969513E-2
1,980182116E2;1,311023086E-1;3,113445640E-2;-3,201961517E-2
1,981182116E2;4,870152846E-2;3,835304081E-2;-7,255649567E-2
1,982182116E2;-4,516431689E-2;-4,259169102E-3;-1,116695404E-1
1,983182116E2;-8,441241086E-2;-1,546278000E-1;-1,547098160E-1
1,984182116E2;-1,218673959E-1;-7,100835443E-2;-2,178192139E-3
1,985182116E2;-3,877562284E-2;-4,374650121E-2;5,427551270E-2
1,986182116E2;-3,322377056E-2;1,783293486E-2;5,322742462E-2
1,987182116E2;-1,458526496E-2;1,371765733E-1;-4,686260223E-2
1,988182116E2;-5,974931642E-3;4,302650690E-3;3,172779083E-2
1,989182116E2;-3,431629762E-2;1,328167319E-2;-6,768321991E-2
1,990182116E2;3,791501047E-3;2,774396539E-2;-5,744171143E-2
